# wavelength (A), geometric albedo
5219 0.581
5239 0.576
5258 0.605
5278 0.594
5298 0.601
5317 0.587
5335 0.552
5354 0.516
5372 0.467
5391 0.422
5410 0.360
5430 0.314
5450 0.366
5470 0.493
5490 0.577
5508 0.604
5527 0.597
5547 0.576
5567 0.573
5587 0.577
5607 0.593
5627 0.580
5646 0.572
5666 0.540
5686 0.508
5706 0.485
5726 0.455
5746 0.424
5766 0.406
5784 0.426
5804 0.478
5824 0.531
5845 0.567
5864 0.577
5884 0.577
5904 0.540
5924 0.503
5943 0.459
5964 0.426
5983 0.431
6003 0.454
6023 0.483
6043 0.497
6063 0.466
6080 0.419
6100 0.385
6120 0.328
6140 0.235
6160 0.199
6180 0.159
6200 0.139
6220 0.163
6239 0.234
6259 0.334
6279 0.408
6299 0.460
6319 0.477
6339 0.485
6359 0.468
6379 0.453
6399 0.437
6419 0.408
6439 0.410
6459 0.411
6479 0.403
6499 0.378
6519 0.373
6539 0.356
6559 0.328
6585 0.300
6625 0.272
6675 0.237
6725 0.315
6775 0.413
6825 0.328
6875 0.345
6925 0.365
6975 0.266
7025 0.160
7075 0.210
7125 0.265
7175 0.141
7225 0.062
7275 0.048
7325 0.063
7373 0.122
7425 0.281
7475 0.335
7525 0.344
7575 0.315
7625 0.217
