#Title: Jupiter and Saturn as Spectral Analogs for 
#       Extrasolar Gas Giants and Brown Dwarfs 
#Authors: Coulter D.J., Barnes J.W., Fortney J.J.
#Figure: Disk-integrated spectra of Saturn for six phase angles
#================================================================================
#Byte-by-byte Description of file: dbf6.txt
#--------------------------------------------------------------------------------
#   Bytes Format Units        Label       Explanations
#--------------------------------------------------------------------------------
#   1-  6 F6.2   deg          Phase       Phase angle
#   8- 15 F8.6   um           Wavelength  Wavelength
#  17- 26 F10.6  uW/cm2/sr/um Flux        Spectral flux radiance
#  28- 36 F9.6   ---          I/F         Apparent reflectance
#--------------------------------------------------------------------------------
 39.64 0.350540  44.678152  0.119065 
 39.64 0.358950  42.127346  0.112973 
 39.64 0.366290  45.857722  0.107358 
 39.64 0.373220  42.837688  0.103720 
 39.64 0.379490  42.210159  0.102647 
 39.64 0.387900  40.933395  0.102767 
 39.64 0.395180  43.789241  0.102520 
 39.64 0.402520  68.080748  0.111758 
 39.64 0.409550  75.827940  0.118014 
 39.64 0.417310  84.504747  0.126932 
 39.64 0.424360  87.450067  0.134928 
 39.64 0.431840  90.709115  0.146510 
 39.64 0.439190 105.229887  0.152747 
 39.64 0.446520 120.988124  0.161544 
 39.64 0.453720 132.656979  0.171128 
 39.64 0.461630 137.840124  0.176413 
 39.64 0.468410 140.938946  0.184303 
 39.64 0.476220 149.022708  0.191890 
 39.64 0.486290 144.950932  0.197802 
 39.64 0.489670 146.035277  0.199865 
 39.64 0.497770 157.327643  0.213326 
 39.64 0.506280 156.674388  0.216583 
 39.64 0.512220 157.414971  0.221939 
 39.64 0.519630 152.217820  0.225532 
 39.64 0.527660 160.660232  0.229315 
 39.64 0.534160 165.709225  0.233091 
 39.64 0.541560 160.329294  0.228458 
 39.64 0.549540 169.304485  0.239282 
 39.64 0.556140 169.829814  0.244675 
 39.64 0.563530 171.755865  0.249686 
 39.64 0.571310 173.491327  0.251393 
 39.64 0.578100 173.632806  0.251867 
 39.64 0.585480 176.197054  0.259409 
 39.64 0.593120 172.802594  0.259313 
 39.64 0.599380 170.940530  0.258037 
 39.64 0.607570 175.695741  0.267497 
 39.64 0.615050 150.646478  0.237449 
 39.64 0.622070 137.835341  0.217802 
 39.64 0.629400 169.931886  0.271799 
 39.64 0.637040 172.995733  0.280915 
 39.64 0.644080 166.297124  0.275087 
 39.64 0.651420 161.122730  0.273632 
 39.64 0.659100 153.287746  0.268772 
 39.64 0.666090 151.163111  0.261595 
 39.64 0.673420 158.164721  0.278469 
 39.64 0.681020 160.166010  0.287812 
 39.64 0.688030 155.966174  0.285393 
 39.64 0.695350 150.735325  0.281091 
 39.64 0.702880 128.516586  0.244766 
 39.64 0.710000 133.573525  0.257282 
 39.64 0.717330 113.344853  0.224205 
 39.64 0.724840  60.501849  0.120531 
 39.64 0.731980  62.011120  0.125737 
 39.64 0.739300 109.980872  0.228340 
 39.64 0.746760 133.121923  0.279228 
 39.64 0.753960 130.998034  0.278359 
 39.64 0.761280 121.699645  0.263523 
 39.64 0.768740 113.035383  0.250202 
 39.64 0.775950 105.025454  0.234932 
 39.64 0.783280  85.130247  0.192387 
 39.64 0.790720  83.351732  0.192092 
 39.64 0.797930  72.728523  0.170283 
 39.64 0.805220  82.257629  0.195875 
 39.64 0.812620  96.791820  0.233154 
 39.64 0.819890 104.830215  0.259247 
 39.64 0.827210 109.269708  0.272086 
 39.64 0.834630 101.413745  0.258339 
 39.64 0.841900  77.094798  0.199142 
 39.64 0.849220  84.037447  0.225795 
 39.64 0.856630  59.785594  0.164587 
 39.64 0.863910  30.227321  0.083430 
 39.64 0.871220  45.595934  0.126238 
 39.64 0.878630  47.050229  0.130472 
 39.64 0.885890   8.952130  0.025231 
 39.64 0.893210  10.434542  0.029452 
 39.64 0.909667  40.600024  0.118746 
 39.64 0.926122  77.294174  0.234253 
 39.64 0.942572  89.215846  0.279468 
 39.64 0.959010  72.384210  0.235128 
 39.64 0.975452  32.163153  0.108288 
 39.64 0.991881  15.402577  0.053752 
 39.64 1.008310  13.591075  0.049206 
 39.64 1.024730  22.418121  0.084329 
 39.64 1.041150  47.939210  0.187379 
 39.64 1.057560  65.030183  0.264000 
 39.64 1.073950  67.148906  0.282816 
 39.64 1.090360  62.406518  0.270326 
 39.64 1.106760  43.542195  0.194841 
 39.64 1.123170  15.486003  0.071221 
 39.64 1.139560   2.813460  0.013335 
 39.64 1.155950   2.303286  0.011213 
 39.64 1.172340   1.407296  0.007076 
 39.64 1.188720   2.750130  0.014228 
 39.64 1.205110  10.016853  0.053220 
 39.64 1.221500  28.257576  0.153941 
 39.64 1.237880  27.795549  0.156277 
 39.64 1.254270  40.925493  0.237064 
 39.64 1.270650  46.397069  0.276680 
 39.64 1.287020  47.792178  0.296162 
 39.64 1.303400  41.583234  0.264833 
 39.64 1.319790  19.458020  0.128680 
 39.64 1.336170   8.752690  0.059976 
 39.64 1.352560   3.193759  0.022650 
 39.64 1.368940   1.850455  0.013509 
 39.64 1.385320   1.496274  0.011203 
 39.64 1.401700   1.203856  0.009240 
 39.64 1.418100   1.863045  0.014682 
 39.64 1.434490   4.768435  0.038701 
 39.64 1.450890   6.792962  0.056658 
 39.64 1.467290  10.667947  0.091078 
 39.64 1.483690  14.432882  0.126455 
 39.64 1.500090  24.204231  0.216681 
 39.64 1.516510  26.750764  0.246793 
 39.64 1.532930  29.452572  0.278498 
 39.64 1.549350  30.645307  0.297423 
 39.64 1.565780  30.539531  0.304354 
 39.64 1.582210  31.243109  0.321035 
 39.64 1.598650  30.962859  0.328070 
 39.64 1.615120  26.996857  0.294256 
 39.64 1.631540  16.942970  0.189047 
 39.64 1.647990   7.789960  0.090841 
 39.64 1.664460   1.785774  0.021229 
 39.64 1.680930   2.033536  0.025126 
 39.64 1.697390   1.060476  0.013448 
 39.64 1.713870   0.365115  0.004805 
 39.64 1.730340   0.503387  0.006822 
 39.64 1.746820   1.721605  0.024412 
 39.64 1.763300   1.021155  0.014856 
 39.64 1.779780   0.401593  0.006035 
 39.64 1.796260   0.776427  0.012018 
 39.64 1.812740   2.428372  0.038690 
 39.64 1.829220   4.520660  0.075255 
 39.64 1.845700   2.936822  0.050326 
 39.64 1.862180   4.807109  0.084587 
 39.64 1.878660   8.626503  0.159257 
 39.64 1.895140   9.439531  0.176892 
 39.64 1.911610   7.333140  0.141646 
 39.64 1.928080   5.639896  0.112317 
 39.64 1.944550   5.967280  0.123530 
 39.64 1.961010   5.983656  0.126756 
 39.64 1.977480   6.084708  0.132977 
 39.64 1.993940   5.990589  0.134797 
 39.64 2.010410   5.166793  0.119580 
 39.64 2.026890   4.002330  0.095506 
 39.64 2.043360   2.980953  0.073668 
 39.64 2.059840   1.980208  0.050583 
 39.64 2.076330   1.257327  0.033275 
 39.64 2.092830   0.722830  0.019740 
 39.64 2.109340   0.474799  0.013283 
 39.64 2.125870   0.419834  0.012066 
 39.64 2.142400   0.680590  0.019971 
 39.64 2.158950   0.513604  0.015467 
 39.64 2.175520   0.151132  0.004776 
 39.64 2.192110   0.168742  0.005371 
 39.64 2.208700   0.138913  0.004542 
 39.64 2.225320   0.020239  0.000676 
 39.64 2.241950   0.107258  0.003711 
 39.64 2.258580   0.099689  0.003559 
 39.64 2.275220   0.028050  0.001028 
 39.64 2.291850   0.065028  0.002447 
 39.64 2.308490   0.055494  0.002140 
 39.64 2.325120   0.023167  0.000921 
 39.64 2.341740   0.048793  0.001991 
 39.64 2.358360   0.077547  0.003260 
 39.64 2.374960   0.047652  0.002046 
 39.64 2.391560   0.045581  0.002022 
 39.64 2.408150   0.021014  0.000945 
 39.64 2.424740   0.041894  0.001946 
 39.64 2.441320   0.115070  0.005446 
 39.64 2.457890   0.247374  0.012108 
 39.64 2.474470   0.673586  0.033572 
 39.64 2.491040   0.933148  0.047936 
 39.64 2.507610   1.100628  0.057336 
 39.64 2.524180   0.695329  0.037188 
 39.64 2.540750   0.700906  0.038524 
 39.64 2.557330   0.424982  0.024047 
 39.64 2.573900   0.147740  0.008526 
 39.64 2.590480   0.157982  0.009362 
 39.64 2.607070   0.260738  0.015627 
 39.64 2.623670   1.116170  0.068938 
 39.64 2.640260   2.526608  0.159335 
 39.64 2.656860   3.397311  0.218677 
 39.64 2.673470   3.774948  0.250731 
 39.64 2.690100   3.969530  0.268445 
 39.64 2.706720   4.137485  0.286159 
 39.64 2.723340   4.158493  0.294289 
 39.64 2.740000   4.107125  0.297162 
 39.64 2.756630   4.163667  0.309045 
 39.64 2.773270   4.155620  0.315854 
 39.64 2.789930   4.106870  0.317841 
 39.64 2.806590   3.803994  0.300551 
 39.64 2.823260   3.452132  0.278773 
 39.64 2.839920   3.057594  0.252449 
 39.64 2.856590   2.673400  0.225846 
 39.64 2.873260   2.281569  0.198147 
 39.64 2.889940   2.109487  0.186445 
 39.64 2.906610   2.051494  0.184811 
 39.64 2.923300   2.197089  0.202382 
 39.64 2.939980   2.218865  0.208864 
 39.64 2.956660   2.063207  0.198366 
 39.64 2.973340   1.991803  0.195218 
 39.64 2.990010   1.656918  0.165968 
 39.64 3.006770   2.007598  0.205708 
 39.64 3.023430   2.256612  0.235865 
 39.64 3.040120   2.262389  0.243608 
 39.64 3.056840   2.148726  0.234750 
 39.64 3.073530   2.032992  0.226373 
 39.64 3.090230   1.990248  0.226188 
 39.64 3.106930   1.898618  0.220167 
 39.64 3.123610   1.647174  0.195626 
 39.64 3.140320   1.312638  0.158360 
 39.64 3.157020   0.890310  0.109840 
 39.64 3.173720   0.453830  0.057078 
 39.64 3.190410   0.176071  0.022553 
 39.64 3.207110   0.060669  0.007931 
 39.64 3.223800   0.026305  0.003507 
 39.64 3.240500   0.020376  0.002772 
 39.64 3.257180   0.007491  0.001039 
 39.64 3.273870   0.010249  0.001450 
 39.64 3.290560   0.017992  0.002607 
 39.64 3.307240   0.002292  0.000340 
 39.64 3.323910   0.024447  0.003689 
 39.64 3.340590   0.027134  0.004149 
 39.64 3.357260   0.003755  0.000585 
 39.64 3.373920   0.008372  0.001331 
 39.64 3.390580   0.004760  0.000771 
 39.64 3.407250  -0.003694 -0.000612 
 39.64 3.423910   0.007294  0.001228 
 39.64 3.440570   0.008066  0.001379 
 39.64 3.457230   0.004335  0.000754 
 39.64 3.473890   0.012842  0.002278 
 39.64 3.490540   0.014675  0.002650 
 39.64 3.507200   0.017513  0.003218 
 39.64 3.523840   0.019121  0.003579 
 39.64 3.540500   0.015842  0.003023 
 39.64 3.557160   0.022348  0.004341 
 39.64 3.573810   0.013861  0.002743 
 39.64 3.590470  -0.006792 -0.001367 
 39.64 3.607110   0.011683  0.002392 
 39.64 3.623770   0.004880  0.001015 
 39.64 3.640430   0.017575  0.003727 
 39.64 3.657090   0.048970  0.010607 
 39.64 3.673740   0.076958  0.016959 
 39.64 3.690400   0.076895  0.017314 
 39.64 3.707060   0.098529  0.022695 
 39.64 3.723730   0.068102  0.015858 
 39.64 3.740390   0.023014  0.005495 
 39.64 3.757050   0.029606  0.007200 
 39.64 3.773710   0.022142  0.005422 
 39.64 3.790380   0.017498  0.004356 
 39.64 3.807040  -0.000025 -0.000006 
 39.64 3.823710   0.022273  0.005719 
 39.64 3.840390   0.010036  0.002616 
 39.64 3.857060   0.052042  0.013786 
 39.64 3.873700   0.134888  0.036404 
 39.64 3.890410   0.049631  0.013616 
 39.64 3.907090   0.042396  0.011813 
 39.64 3.923780   0.048578  0.013740 
 39.64 3.940470   0.079042  0.022736 
 39.64 3.957170   0.106913  0.031354 
 39.64 3.973870   0.212693  0.063341 
 39.64 3.990570   0.206233  0.062574 
 39.64 4.007280   0.250663  0.077333 
 39.64 4.023980   0.344747  0.108007 
 39.64 4.040700   0.324161  0.103157 
 39.64 4.057430   0.378862  0.123493 
 39.64 4.074140   0.422907  0.139043 
 39.64 4.090880   0.432167  0.143852 
 39.64 4.107600   0.493975  0.166831 
 39.64 4.124330   0.332497  0.114003 
 39.64 4.141070   0.303561  0.105781 
 39.64 4.157810   0.165100  0.058486 
 39.64 4.174560   0.112775  0.040566 
 39.64 4.191300   0.078641  0.028761 
 39.64 4.208040   0.049258  0.018352 
 39.64 4.224780   0.023486  0.008847 
 39.64 4.241530   0.028943  0.011053 
 39.64 4.258270   0.035321  0.013707 
 39.64 4.275020   0.076585  0.030147 
 39.64 4.291770   0.071152  0.028663 
 39.64 4.308520   0.035290  0.014677 
 39.64 4.325260   0.039617  0.016637 
 39.64 4.342010   0.051126  0.021815 
 39.64 4.358760   0.038841  0.017133 
 39.64 4.375500   0.042536  0.019057 
 39.64 4.392240   0.044598  0.020177 
 39.64 4.408980   0.055601  0.025844 
 39.64 4.425730   0.073868  0.035094 
 39.64 4.442480   0.066112  0.031614 
 39.64 4.459220   0.080318  0.038951 
 39.64 4.475990   0.095862  0.047732 
 39.64 4.492740   0.107378  0.053948 
 39.64 4.509490   0.155576  0.078996 
 39.64 4.526250   0.170514  0.088469 
 39.64 4.543010   0.198256  0.104625 
 39.64 4.559790   0.171276  0.091093 
 39.64 4.576540   0.203832  0.109911 
 39.64 4.593320   0.227951  0.125696 
 39.64 4.610090   0.235816  0.131213 
 39.64 4.626870   0.238118  0.133767 
 39.64 4.643640   0.254053  0.144651 
 39.64 4.660440   0.291847  0.170146 
 39.64 4.677210   0.302765  0.177021 
 39.64 4.694010   0.312956  0.184603 
 39.64 4.710790   0.250955  0.150071 
 39.64 4.727590   0.216082  0.130975 
 39.64 4.744400   0.159101  0.097474 
 39.64 4.761210   0.214868  0.133310 
 39.64 4.778030   0.271796  0.171344 
 39.64 4.794860   0.320965  0.205049 
 39.64 4.811690   0.293389  0.189797 
 39.64 4.828520   0.300251  0.196058 
 39.64 4.845360   0.277204  0.183118 
 39.64 4.862220   0.266149  0.178495 
 39.64 4.879080   0.298902  0.203523 
 39.64 4.895940   0.273899  0.188441 
 39.64 4.912830   0.308040  0.214663 
 39.64 4.929720   0.280698  0.198650 
 39.64 4.946610   0.302831  0.217035 
 39.64 4.963510   0.319067  0.231454 
 39.64 4.980430   0.352335  0.258566 
 39.64 4.997340   0.425697  0.317106 
 39.64 5.014250   0.426506  0.322006 
 39.64 5.031170   0.517531  0.395261 
 39.64 5.048110   0.583070  0.449405 
 39.64 5.065030   0.608087  0.475284 
 39.64 5.081950   0.417536  0.331126 
 39.64 5.098890   0.564297  0.453630 
 39.64 5.115800   0.592634  0.482389 
 39.64 5.132420   0.607345  0.501456 
 49.61 0.350540  36.669716  0.097760 
 49.61 0.358950  34.619674  0.092874 
 49.61 0.366290  37.610541  0.088084 
 49.61 0.373220  35.140816  0.085116 
 49.61 0.379490  34.721101  0.084466 
 49.61 0.387900  33.894222  0.085126 
 49.61 0.395180  36.531806  0.085561 
 49.61 0.402520  57.015372  0.093629 
 49.61 0.409550  63.772804  0.099289 
 49.61 0.417310  70.991966  0.106674 
 49.61 0.424360  73.339005  0.113198 
 49.61 0.431840  76.152263  0.123044 
 49.61 0.439190  88.379686  0.128336 
 49.61 0.446520 101.395058  0.135434 
 49.61 0.453720 111.465994  0.143845 
 49.61 0.461630 115.913586  0.148406 
 49.61 0.468410 118.432087  0.154929 
 49.61 0.476220 125.429557  0.161571 
 49.61 0.486290 122.157786  0.166760 
 49.61 0.489670 123.162957  0.168625 
 49.61 0.497770 132.632609  0.179908 
 49.61 0.506280 132.092883  0.182670 
 49.61 0.512220 132.707024  0.187173 
 49.61 0.519630 128.320659  0.190196 
 49.61 0.527660 135.566081  0.193570 
 49.61 0.534160 139.797620  0.196717 
 49.61 0.541560 135.200164  0.192723 
 49.61 0.549540 142.745826  0.201821 
 49.61 0.556140 143.330575  0.206575 
 49.61 0.563530 145.004795  0.210876 
 49.61 0.571310 146.486214  0.212341 
 49.61 0.578100 146.465195  0.212538 
 49.61 0.585480 148.801541  0.219157 
 49.61 0.593120 145.915944  0.219048 
 49.61 0.599380 144.417549  0.218082 
 49.61 0.607570 148.301391  0.225873 
 49.61 0.615050 127.001888  0.200255 
 49.61 0.622070 116.039986  0.183431 
 49.61 0.629400 143.570456  0.229721 
 49.61 0.637040 146.266123  0.237599 
 49.61 0.644080 140.626205  0.232709 
 49.61 0.651420 136.333322  0.231619 
 49.61 0.659100 129.716657  0.227528 
 49.61 0.666090 127.899562  0.221419 
 49.61 0.673420 133.824740  0.235704 
 49.61 0.681020 135.596412  0.243753 
 49.61 0.688030 132.067163  0.241752 
 49.61 0.695350 127.672002  0.238172 
 49.61 0.702880 108.778944  0.207252 
 49.61 0.710000 113.073249  0.217877 
 49.61 0.717330  95.844942  0.189660 
 49.61 0.724840  50.722634  0.101086 
 49.61 0.731980  52.051713  0.105582 
 49.61 0.739300  93.103613  0.193372 
 49.61 0.746760 112.867982  0.236833 
 49.61 0.753960 111.160753  0.236295 
 49.61 0.761280 103.426969  0.224040 
 49.61 0.768740  96.076231  0.212743 
 49.61 0.775950  89.194895  0.199596 
 49.61 0.783280  72.160973  0.163139 
 49.61 0.790720  70.672287  0.162932 
 49.61 0.797930  61.579746  0.144234 
 49.61 0.805220  69.735497  0.166119 
 49.61 0.812620  82.305826  0.198334 
 49.61 0.819890  89.264597  0.220835 
 49.61 0.827210  93.001602  0.231664 
 49.61 0.834630  86.259814  0.219818 
 49.61 0.841900  65.501217  0.169258 
 49.61 0.849220  71.561171  0.192346 
 49.61 0.856630  50.688071  0.139594 
 49.61 0.863910  25.372059  0.070055 
 49.61 0.871220  38.566515  0.106816 
 49.61 0.878630  39.824688  0.110477 
 49.61 0.885890   7.361148  0.020754 
 49.61 0.893210   7.740983  0.021857 
 49.61 0.909667  34.467889  0.100849 
 49.61 0.926122  66.594229  0.201901 
 49.61 0.942572  77.011484  0.241328 
 49.61 0.959010  62.459224  0.202964 
 49.61 0.975452  27.555904  0.092811 
 49.61 0.991881  12.896404  0.045022 
 49.61 1.008310  11.371212  0.041185 
 49.61 1.024730  18.996419  0.071484 
 49.61 1.041150  41.447612  0.162066 
 49.61 1.057560  56.278791  0.228558 
 49.61 1.073950  58.039441  0.244540 
 49.61 1.090360  54.091142  0.234394 
 49.61 1.106760  37.559217  0.168131 
 49.61 1.123170  13.213097  0.060791 
 49.61 1.139560   2.430814  0.011525 
 49.61 1.155950   1.852317  0.009021 
 49.61 1.172340   1.188884  0.005980 
 49.61 1.188720   2.401847  0.012431 
 49.61 1.205110   8.615309  0.045790 
 49.61 1.221500  24.387247  0.132906 
 49.61 1.237880  23.952519  0.134720 
 49.61 1.254270  35.568851  0.206112 
 49.61 1.270650  40.496500  0.241583 
 49.61 1.287020  41.730327  0.258694 
 49.61 1.303400  36.196767  0.230614 
 49.61 1.319790  16.887497  0.111722 
 49.61 1.336170   7.620204  0.052236 
 49.61 1.352560   2.751196  0.019519 
 49.61 1.368940   1.716488  0.012535 
 49.61 1.385320   1.236649  0.009263 
 49.61 1.401700   1.064719  0.008175 
 49.61 1.418100   1.532874  0.012085 
 49.61 1.434490   3.970065  0.032234 
 49.61 1.450890   5.827924  0.048627 
 49.61 1.467290   9.263510  0.079118 
 49.61 1.483690  12.510406  0.109652 
 49.61 1.500090  21.356288  0.191257 
 49.61 1.516510  23.491886  0.216809 
 49.61 1.532930  25.764913  0.243719 
 49.61 1.549350  27.005833  0.262199 
 49.61 1.565780  26.748206  0.266670 
 49.61 1.582210  27.422449  0.281881 
 49.61 1.598650  27.092856  0.287172 
 49.61 1.615120  23.842285  0.259970 
 49.61 1.631540  14.852871  0.165788 
 49.61 1.647990   6.759133  0.078850 
 49.61 1.664460   1.527885  0.018170 
 49.61 1.680930   1.736378  0.021462 
 49.61 1.697390   0.892396  0.011320 
 49.61 1.713870   0.353671  0.004657 
 49.61 1.730340   0.400661  0.005432 
 49.61 1.746820   1.324936  0.018795 
 49.61 1.763300   0.844851  0.012296 
 49.61 1.779780   0.392455  0.005899 
 49.61 1.796260   0.705865  0.010930 
 49.61 1.812740   2.088039  0.033280 
 49.61 1.829220   3.978061  0.066247 
 49.61 1.845700   2.661410  0.045624 
 49.61 1.862180   4.163989  0.073298 
 49.61 1.878660   7.524077  0.138956 
 49.61 1.895140   8.355143  0.156630 
 49.61 1.911610   6.474994  0.125117 
 49.61 1.928080   4.954239  0.098699 
 49.61 1.944550   5.205338  0.107797 
 49.61 1.961010   5.268668  0.111651 
 49.61 1.977480   5.389132  0.117820 
 49.61 1.993940   5.242854  0.118016 
 49.61 2.010410   4.557634  0.105521 
 49.61 2.026890   3.500834  0.083571 
 49.61 2.043360   2.613966  0.064622 
 49.61 2.059840   1.853246  0.047357 
 49.61 2.076330   1.120984  0.029677 
 49.61 2.092830   0.607319  0.016592 
 49.61 2.109340   0.418136  0.011702 
 49.61 2.125870   0.371323  0.010676 
 49.61 2.142400   0.593397  0.017419 
 49.61 2.158950   0.451011  0.013588 
 49.61 2.175520   0.138466  0.004378 
 49.61 2.192110   0.141798  0.004515 
 49.61 2.208700   0.156342  0.005114 
 49.61 2.225320   0.097119  0.003244 
 49.61 2.241950   0.106074  0.003671 
 49.61 2.258580   0.077259  0.002760 
 49.61 2.275220   0.041394  0.001517 
 49.61 2.291850   0.061118  0.002301 
 49.61 2.308490   0.052763  0.002036 
 49.61 2.325120   0.024327  0.000967 
 49.61 2.341740   0.055868  0.002280 
 49.61 2.358360   0.071205  0.002994 
 49.61 2.374960   0.058651  0.002519 
 49.61 2.391560   0.026286  0.001167 
 49.61 2.408150   0.037637  0.001692 
 49.61 2.424740   0.033621  0.001562 
 49.61 2.441320   0.042813  0.002027 
 49.61 2.457890   0.224512  0.010993 
 49.61 2.474470   0.601911  0.030011 
 49.61 2.491040   0.819284  0.042103 
 49.61 2.507610   0.938177  0.048892 
 49.61 2.524180   0.611315  0.032707 
 49.61 2.540750   0.578444  0.031805 
 49.61 2.557330   0.373535  0.021144 
 49.61 2.573900   0.111285  0.006424 
 49.61 2.590480   0.147596  0.008750 
 49.61 2.607070   0.244816  0.014678 
 49.61 2.623670   0.938164  0.057966 
 49.61 2.640260   2.192708  0.138330 
 49.61 2.656860   2.997786  0.193033 
 49.61 2.673470   3.337531  0.221761 
 49.61 2.690100   3.471361  0.234844 
 49.61 2.706720   3.657587  0.253063 
 49.61 2.723340   3.662093  0.259257 
 49.61 2.740000   3.639850  0.263452 
 49.61 2.756630   3.670513  0.272543 
 49.61 2.773270   3.623879  0.275541 
 49.61 2.789930   3.618617  0.280159 
 49.61 2.806590   3.313946  0.261931 
 49.61 2.823260   3.043448  0.245862 
 49.61 2.839920   2.702520  0.223216 
 49.61 2.856590   2.332191  0.197094 
 49.61 2.873260   2.040876  0.177310 
 49.61 2.889940   1.879416  0.166172 
 49.61 2.906610   1.841570  0.165962 
 49.61 2.923300   1.960769  0.180681 
 49.61 2.939980   1.941082  0.182785 
 49.61 2.956660   1.834667  0.176459 
 49.61 2.973340   1.718417  0.168486 
 49.61 2.990010   1.515922  0.151902 
 49.61 3.006770   1.750759  0.179458 
 49.61 3.023430   2.000702  0.209195 
 49.61 3.040120   2.005215  0.215997 
 49.61 3.056840   1.884223  0.205930 
 49.61 3.073530   1.790142  0.199407 
 49.61 3.090230   1.742854  0.198147 
 49.61 3.106930   1.635649  0.189744 
 49.61 3.123610   1.452120  0.172525 
 49.61 3.140320   1.159111  0.139891 
 49.61 3.157020   0.767011  0.094663 
 49.61 3.173720   0.401221  0.050480 
 49.61 3.190410   0.159912  0.020491 
 49.61 3.207110   0.061231  0.008007 
 49.61 3.223800   0.025164  0.003356 
 49.61 3.240500   0.008154  0.001110 
 49.61 3.257180   0.024325  0.003375 
 49.61 3.273870   0.018871  0.002670 
 49.61 3.290560   0.022719  0.003293 
 49.61 3.307240   0.012553  0.001865 
 49.61 3.323910   0.009338  0.001409 
 49.61 3.340590   0.030231  0.004624 
 49.61 3.357260   0.005843  0.000910 
 49.61 3.373920   0.017633  0.002805 
 49.61 3.390580   0.002348  0.000380 
 49.61 3.407250   0.004625  0.000767 
 49.61 3.423910   0.014664  0.002469 
 49.61 3.440570   0.018331  0.003136 
 49.61 3.457230   0.003879  0.000675 
 49.61 3.473890   0.017078  0.003030 
 49.61 3.490540  -0.010714 -0.001935 
 49.61 3.507200   0.004819  0.000886 
 49.61 3.523840   0.016598  0.003108 
 49.61 3.540500   0.008232  0.001571 
 49.61 3.557160   0.007939  0.001543 
 49.61 3.573810   0.020323  0.004023 
 49.61 3.590470  -0.007646 -0.001540 
 49.61 3.607110   0.021094  0.004320 
 49.61 3.623770   0.003107  0.000647 
 49.61 3.640430   0.021591  0.004580 
 49.61 3.657090   0.046476  0.010070 
 49.61 3.673740   0.076966  0.016967 
 49.61 3.690400   0.066210  0.014914 
 49.61 3.707060   0.086073  0.019833 
 49.61 3.723730   0.032197  0.007500 
 49.61 3.740390   0.017851  0.004264 
 49.61 3.757050   0.024154  0.005876 
 49.61 3.773710   0.030042  0.007360 
 49.61 3.790380   0.019202  0.004783 
 49.61 3.807040   0.008838  0.002236 
 49.61 3.823710   0.021505  0.005524 
 49.61 3.840390   0.018559  0.004840 
 49.61 3.857060   0.039052  0.010349 
 49.61 3.873700   0.006264  0.001691 
 49.61 3.890410   0.041278  0.011329 
 49.61 3.907090   0.052027  0.014501 
 49.61 3.923780   0.041905  0.011857 
 49.61 3.940470   0.080111  0.023052 
 49.61 3.957170   0.100893  0.029600 
 49.61 3.973870   0.168984  0.050343 
 49.61 3.990570   0.163496  0.049626 
 49.61 4.007280   0.220138  0.067941 
 49.61 4.023980   0.313258  0.098178 
 49.61 4.040700   0.292468  0.093106 
 49.61 4.057430   0.327401  0.106759 
 49.61 4.074140   0.381238  0.125390 
 49.61 4.090880   0.383070  0.127557 
 49.61 4.107600   0.441519  0.149171 
 49.61 4.124330   0.293925  0.100816 
 49.61 4.141070   0.276930  0.096537 
 49.61 4.157810   0.152302  0.053973 
 49.61 4.174560   0.112934  0.040638 
 49.61 4.191300   0.067511  0.024700 
 49.61 4.208040   0.051763  0.019292 
 49.61 4.224780   0.053225  0.020056 
 49.61 4.241530   0.028952  0.011061 
 49.61 4.258270   0.026799  0.010404 
 49.61 4.275020   0.075131  0.029585 
 49.61 4.291770   0.030486  0.012286 
 49.61 4.308520   0.018186  0.007567 
 49.61 4.325260   0.030268  0.012716 
 49.61 4.342010   0.068283  0.029146 
 49.61 4.358760   0.027430  0.012104 
 49.61 4.375500   0.042016  0.018832 
 49.61 4.392240   0.038129  0.017257 
 49.61 4.408980   0.051326  0.023866 
 49.61 4.425730   0.061402  0.029182 
 49.61 4.442480   0.069787  0.033384 
 49.61 4.459220   0.063005  0.030566 
 49.61 4.475990   0.083144  0.041416 
 49.61 4.492740   0.088697  0.044579 
 49.61 4.509490   0.142219  0.072240 
 49.61 4.526250   0.147138  0.076369 
 49.61 4.543010   0.182660  0.096430 
 49.61 4.559790   0.144686  0.076980 
 49.61 4.576540   0.173981  0.093850 
 49.61 4.593320   0.189357  0.104454 
 49.61 4.610090   0.214852  0.119593 
 49.61 4.626870   0.207031  0.116346 
 49.61 4.643640   0.214763  0.122326 
 49.61 4.660440   0.244498  0.142595 
 49.61 4.677210   0.265819  0.155478 
 49.61 4.694010   0.265942  0.156929 
 49.61 4.710790   0.225154  0.134692 
 49.61 4.727590   0.175466  0.106396 
 49.61 4.744400   0.131759  0.080753 
 49.61 4.761210   0.168116  0.104343 
 49.61 4.778030   0.247518  0.156097 
 49.61 4.794860   0.273829  0.175002 
 49.61 4.811690   0.264819  0.171378 
 49.61 4.828520   0.256205  0.167359 
 49.61 4.845360   0.240220  0.158746 
 49.61 4.862220   0.242188  0.162487 
 49.61 4.879080   0.256814  0.174930 
 49.61 4.895940   0.257024  0.176897 
 49.61 4.912830   0.294632  0.205396 
 49.61 4.929720   0.253283  0.179316 
 49.61 4.946610   0.274911  0.197099 
 49.61 4.963510   0.294060  0.213394 
 49.61 4.980430   0.297897  0.218698 
 49.61 4.997340   0.364695  0.271766 
 49.61 5.014250   0.418335  0.315955 
 49.61 5.031170   0.496854  0.379611 
 49.61 5.048110   0.570007  0.439501 
 49.61 5.065030   0.570390  0.445986 
 49.61 5.081950   0.399404  0.316865 
 49.61 5.098890   0.512943  0.412501 
 49.61 5.115800   0.561353  0.457097 
 49.61 5.132420   0.603371  0.495799 
 57.76 0.350540  31.220596  0.083259 
 57.76 0.358950  29.462878  0.079065 
 57.76 0.366290  31.959981  0.074874 
 57.76 0.373220  29.945531  0.072555 
 57.76 0.379490  29.660800  0.072179 
 57.76 0.387900  29.143237  0.073218 
 57.76 0.395180  31.445167  0.073671 
 57.76 0.402520  49.546968  0.081390 
 57.76 0.409550  55.465536  0.086383 
 57.76 0.417310  61.963665  0.093138 
 57.76 0.424360  64.184158  0.099099 
 57.76 0.431840  66.403851  0.107328 
 57.76 0.439190  77.364495  0.112377 
 57.76 0.446520  88.778935  0.118620 
 57.76 0.453720  97.549457  0.125927 
 57.76 0.461630 101.405481  0.129873 
 57.76 0.468410 103.826686  0.135866 
 57.76 0.476220 109.750838  0.141420 
 57.76 0.486290 107.112432  0.146269 
 57.76 0.489670 107.987594  0.147896 
 57.76 0.497770 116.401186  0.157942 
 57.76 0.506280 115.959911  0.160412 
 57.76 0.512220 116.475645  0.164333 
 57.76 0.519630 112.772295  0.167204 
 57.76 0.527660 119.212174  0.170273 
 57.76 0.534160 122.927461  0.173033 
 57.76 0.541560 118.871372  0.169501 
 57.76 0.549540 125.565198  0.177587 
 57.76 0.556140 126.115152  0.181821 
 57.76 0.563530 127.574865  0.185588 
 57.76 0.571310 128.882799  0.186884 
 57.76 0.578100 128.867828  0.187062 
 57.76 0.585480 130.915636  0.192877 
 57.76 0.593120 128.409577  0.192830 
 57.76 0.599380 126.989453  0.191826 
 57.76 0.607570 130.296818  0.198515 
 57.76 0.615050 111.630602  0.176075 
 57.76 0.622070 101.896813  0.161125 
 57.76 0.629400 126.130123  0.201880 
 57.76 0.637040 128.478060  0.208771 
 57.76 0.644080 123.598129  0.204597 
 57.76 0.651420 119.767154  0.203540 
 57.76 0.659100 113.968074  0.199968 
 57.76 0.666090 112.270809  0.194425 
 57.76 0.673420 117.433955  0.206901 
 57.76 0.681020 119.076695  0.214125 
 57.76 0.688030 115.964677  0.212344 
 57.76 0.695350 112.197897  0.209372 
 57.76 0.702880  95.656044  0.182308 
 57.76 0.710000  99.468703  0.191724 
 57.76 0.717330  84.367723  0.167002 
 57.76 0.724840  44.634585  0.088982 
 57.76 0.731980  45.756568  0.092843 
 57.76 0.739300  81.934414  0.170228 
 57.76 0.746760  99.275024  0.208378 
 57.76 0.753960  97.777075  0.207912 
 57.76 0.761280  91.063414  0.197322 
 57.76 0.768740  84.602149  0.187396 
 57.76 0.775950  78.644477  0.176043 
 57.76 0.783280  63.591322  0.143811 
 57.76 0.790720  62.268778  0.143604 
 57.76 0.797930  54.263629  0.127139 
 57.76 0.805220  61.516981  0.146589 
 57.76 0.812620  72.613946  0.175035 
 57.76 0.819890  78.761128  0.194913 
 57.76 0.827210  81.923974  0.204136 
 57.76 0.834630  76.149710  0.194117 
 57.76 0.841900  57.842580  0.149516 
 57.76 0.849220  63.220375  0.169981 
 57.76 0.856630  44.768017  0.123330 
 57.76 0.863910  22.376691  0.061805 
 57.76 0.871220  34.056418  0.094355 
 57.76 0.878630  35.126587  0.097475 
 57.76 0.885890   6.501333  0.018336 
 57.76 0.893210   6.632530  0.018733 
 57.76 0.909667  30.198049  0.088384 
 57.76 0.926122  58.350576  0.176964 
 57.76 0.942572  67.702433  0.212225 
 57.76 0.959010  55.004509  0.178797 
 57.76 0.975452  24.311327  0.081909 
 57.76 0.991881  11.305804  0.039482 
 57.76 1.008310   9.972384  0.036130 
 57.76 1.024730  16.528990  0.062219 
 57.76 1.041150  36.383904  0.142312 
 57.76 1.057560  49.735155  0.202048 
 57.76 1.073950  51.125387  0.215478 
 57.76 1.090360  47.778407  0.207105 
 57.76 1.106760  33.356897  0.149368 
 57.76 1.123170  11.847425  0.054525 
 57.76 1.139560   2.125670  0.010082 
 57.76 1.155950   1.634533  0.007963 
 57.76 1.172340   1.053480  0.005301 
 57.76 1.188720   2.119097  0.010971 
 57.76 1.205110   7.572604  0.040261 
 57.76 1.221500  21.559740  0.117534 
 57.76 1.237880  21.236365  0.119482 
 57.76 1.254270  31.438900  0.182238 
 57.76 1.270650  35.812277  0.213708 
 57.76 1.287020  36.998097  0.229432 
 57.76 1.303400  32.323631  0.206004 
 57.76 1.319790  15.325151  0.101419 
 57.76 1.336170   6.854882  0.047004 
 57.76 1.352560   2.456189  0.017431 
 57.76 1.368940   1.511945  0.011045 
 57.76 1.385320   1.155051  0.008654 
 57.76 1.401700   0.930881  0.007150 
 57.76 1.418100   1.326274  0.010459 
 57.76 1.434490   3.570586  0.029000 
 57.76 1.450890   5.213835  0.043518 
 57.76 1.467290   8.226938  0.070287 
 57.76 1.483690  11.156790  0.097819 
 57.76 1.500090  19.014235  0.170338 
 57.76 1.516510  20.926265  0.193192 
 57.76 1.532930  23.001260  0.217647 
 57.76 1.549350  24.093349  0.233997 
 57.76 1.565780  23.850108  0.237853 
 57.76 1.582210  24.430579  0.251208 
 57.76 1.598650  24.155441  0.256119 
 57.76 1.615120  21.204301  0.231280 
 57.76 1.631540  13.411193  0.149744 
 57.76 1.647990   6.003141  0.070053 
 57.76 1.664460   1.638548  0.019492 
 57.76 1.680930   1.553955  0.019214 
 57.76 1.697390   0.878716  0.011151 
 57.76 1.713870   0.291869  0.003844 
 57.76 1.730340   0.348296  0.004723 
 57.76 1.746820   1.236819  0.017550 
 57.76 1.763300   0.779129  0.011343 
 57.76 1.779780   0.358441  0.005390 
 57.76 1.796260   0.656496  0.010169 
 57.76 1.812740   1.859857  0.029653 
 57.76 1.829220   3.608596  0.060113 
 57.76 1.845700   2.426275  0.041606 
 57.76 1.862180   3.895207  0.068588 
 57.76 1.878660   6.757169  0.124833 
 57.76 1.895140   7.553944  0.141656 
 57.76 1.911610   5.873130  0.113523 
 57.76 1.928080   4.508493  0.089848 
 57.76 1.944550   4.705058  0.097468 
 57.76 1.961010   4.764673  0.101003 
 57.76 1.977480   4.881025  0.106746 
 57.76 1.993940   4.807812  0.108258 
 57.76 2.010410   4.147580  0.096058 
 57.76 2.026890   3.231557  0.077167 
 57.76 2.043360   2.379744  0.058851 
 57.76 2.059840   1.641047  0.041948 
 57.76 2.076330   1.024286  0.027126 
 57.76 2.092830   0.676106  0.018477 
 57.76 2.109340   0.388854  0.010886 
 57.76 2.125870   0.347283  0.009988 
 57.76 2.142400   0.552891  0.016235 
 57.76 2.158950   0.424945  0.012806 
 57.76 2.175520   0.118287  0.003741 
 57.76 2.192110   0.126008  0.004013 
 57.76 2.208700   0.073828  0.002416 
 57.76 2.225320   0.106572  0.003561 
 57.76 2.241950   0.090550  0.003135 
 57.76 2.258580   0.083772  0.002993 
 57.76 2.275220   0.036980  0.001356 
 57.76 2.291850   0.050255  0.001893 
 57.76 2.308490   0.042715  0.001648 
 57.76 2.325120   0.039580  0.001574 
 57.76 2.341740   0.043098  0.001760 
 57.76 2.358360   0.070167  0.002951 
 57.76 2.374960   0.038640  0.001660 
 57.76 2.391560   0.024928  0.001107 
 57.76 2.408150   0.022391  0.001007 
 57.76 2.424740   0.024519  0.001140 
 57.76 2.441320   0.099043  0.004691 
 57.76 2.457890   0.190493  0.009330 
 57.76 2.474470   0.539457  0.026906 
 57.76 2.491040   0.763384  0.039243 
 57.76 2.507610   0.863181  0.044998 
 57.76 2.524180   0.572846  0.030658 
 57.76 2.540750   0.524139  0.028828 
 57.76 2.557330   0.321739  0.018218 
 57.76 2.573900   0.160261  0.009255 
 57.76 2.590480   0.133884  0.007939 
 57.76 2.607070   0.222530  0.013346 
 57.76 2.623670   0.915533  0.056586 
 57.76 2.640260   2.003753  0.126450 
 57.76 2.656860   2.717207  0.175022 
 57.76 2.673470   3.009681  0.200041 
 57.76 2.690100   3.152531  0.213343 
 57.76 2.706720   3.298253  0.228274 
 57.76 2.723340   3.301873  0.233830 
 57.76 2.740000   3.275539  0.237159 
 57.76 2.756630   3.309541  0.245819 
 57.76 2.773270   3.259039  0.247880 
 57.76 2.789930   3.255589  0.252134 
 57.76 2.806590   2.997141  0.236967 
 57.76 2.823260   2.742409  0.221614 
 57.76 2.839920   2.417142  0.199709 
 57.76 2.856590   2.159932  0.182595 
 57.76 2.873260   1.848572  0.160654 
 57.76 2.889940   1.712542  0.151466 
 57.76 2.906610   1.683134  0.151733 
 57.76 2.923300   1.780142  0.164090 
 57.76 2.939980   1.761844  0.165960 
 57.76 2.956660   1.652213  0.158962 
 57.76 2.973340   1.564981  0.153491 
 57.76 2.990010   1.348517  0.135170 
 57.76 3.006770   1.620226  0.166131 
 57.76 3.023430   1.815134  0.189853 
 57.76 3.040120   1.803056  0.194283 
 57.76 3.056840   1.688073  0.184551 
 57.76 3.073530   1.602339  0.178544 
 57.76 3.090230   1.567066  0.178218 
 57.76 3.106930   1.451231  0.168404 
 57.76 3.123610   1.274060  0.151419 
 57.76 3.140320   1.046801  0.126377 
 57.76 3.157020   0.692914  0.085546 
 57.76 3.173720   0.363985  0.045810 
 57.76 3.190410   0.135039  0.017310 
 57.76 3.207110   0.057610  0.007536 
 57.76 3.223800   0.023186  0.003093 
 57.76 3.240500   0.024784  0.003374 
 57.76 3.257180   0.016988  0.002357 
 57.76 3.273870   0.014208  0.002011 
 57.76 3.290560   0.021500  0.003117 
 57.76 3.307240   0.005886  0.000875 
 57.76 3.323910   0.025859  0.003904 
 57.76 3.340590  -0.000629 -0.000096 
 57.76 3.357260   0.004878  0.000760 
 57.76 3.373920   0.011951  0.001902 
 57.76 3.390580   0.003239  0.000525 
 57.76 3.407250  -0.000351 -0.000058 
 57.76 3.423910   0.022710  0.003825 
 57.76 3.440570   0.009805  0.001678 
 57.76 3.457230   0.005201  0.000905 
 57.76 3.473890   0.016192  0.002874 
 57.76 3.490540  -0.002537 -0.000458 
 57.76 3.507200  -0.006321 -0.001162 
 57.76 3.523840   0.016624  0.003114 
 57.76 3.540500   0.019869  0.003794 
 57.76 3.557160   0.005459  0.001061 
 57.76 3.573810   0.020354  0.004030 
 57.76 3.590470  -0.004959 -0.000999 
 57.76 3.607110   0.014617  0.002994 
 57.76 3.623770   0.002798  0.000583 
 57.76 3.640430   0.017903  0.003799 
 57.76 3.657090   0.044708  0.009691 
 57.76 3.673740   0.070504  0.015548 
 57.76 3.690400   0.062485  0.014079 
 57.76 3.707060   0.066215  0.015262 
 57.76 3.723730   0.046603  0.010859 
 57.76 3.740390   0.016141  0.003857 
 57.76 3.757050   0.023200  0.005646 
 57.76 3.773710   0.006322  0.001549 
 57.76 3.790380   0.016078  0.004006 
 57.76 3.807040   0.001680  0.000425 
 57.76 3.823710   0.021388  0.005495 
 57.76 3.840390   0.020026  0.005224 
 57.76 3.857060   0.037757  0.010009 
 57.76 3.873700  -0.027932 -0.007544 
 57.76 3.890410   0.026839  0.007369 
 57.76 3.907090   0.035709  0.009956 
 57.76 3.923780   0.060174  0.017032 
 57.76 3.940470   0.067386  0.019397 
 57.76 3.957170   0.086021  0.025245 
 57.76 3.973870   0.151233  0.045069 
 57.76 3.990570   0.161362  0.048994 
 57.76 4.007280   0.197632  0.061015 
 57.76 4.023980   0.278040  0.087168 
 57.76 4.040700   0.265748  0.084627 
 57.76 4.057430   0.314766  0.102672 
 57.76 4.074140   0.339477  0.111690 
 57.76 4.090880   0.335887  0.111882 
 57.76 4.107600   0.386442  0.130605 
 57.76 4.124330   0.263515  0.090414 
 57.76 4.141070   0.242068  0.084412 
 57.76 4.157810   0.135860  0.048162 
 57.76 4.174560   0.094945  0.034176 
 57.76 4.191300   0.070371  0.025754 
 57.76 4.208040   0.049080  0.018298 
 57.76 4.224780   0.047785  0.018012 
 57.76 4.241530   0.024220  0.009256 
 57.76 4.258270   0.024004  0.009322 
 57.76 4.275020   0.059703  0.023518 
 57.76 4.291770   0.061073  0.024620 
 57.76 4.308520   0.006320  0.002630 
 57.76 4.325260   0.025945  0.010903 
 57.76 4.342010   0.043040  0.018377 
 57.76 4.358760   0.024003  0.010596 
 57.76 4.375500   0.038141  0.017100 
 57.76 4.392240   0.032446  0.014690 
 57.76 4.408980   0.027992  0.013020 
 57.76 4.425730   0.056809  0.027007 
 57.76 4.442480   0.058593  0.028038 
 57.76 4.459220   0.078910  0.038294 
 57.76 4.475990   0.067031  0.033400 
 57.76 4.492740   0.083636  0.042049 
 57.76 4.509490   0.111050  0.056426 
 57.76 4.526250   0.147896  0.076787 
 57.76 4.543010   0.153481  0.081053 
 57.76 4.559790   0.126430  0.067289 
 57.76 4.576540   0.181608  0.097995 
 57.76 4.593320   0.162926  0.089903 
 57.76 4.610090   0.170700  0.095047 
 57.76 4.626870   0.172859  0.097174 
 57.76 4.643640   0.185383  0.105625 
 57.76 4.660440   0.216342  0.126215 
 57.76 4.677210   0.230297  0.134744 
 57.76 4.694010   0.261206  0.154184 
 57.76 4.710790   0.189977  0.113685 
 57.76 4.727590   0.156983  0.095220 
 57.76 4.744400   0.150897  0.092511 
 57.76 4.761210   0.147870  0.091806 
 57.76 4.778030   0.210337  0.132692 
 57.76 4.794860   0.257948  0.164905 
 57.76 4.811690   0.254637  0.164842 
 57.76 4.828520   0.222097  0.145125 
 57.76 4.845360   0.213872  0.141380 
 57.76 4.862220   0.220754  0.148154 
 57.76 4.879080   0.222582  0.151662 
 57.76 4.895940   0.232294  0.159928 
 57.76 4.912830   0.251086  0.175095 
 57.76 4.929720   0.234237  0.165885 
 57.76 4.946610   0.240952  0.172808 
 57.76 4.963510   0.271539  0.197114 
 57.76 4.980430   0.267642  0.196550 
 57.76 4.997340   0.346385  0.258205 
 57.76 5.014250   0.384680  0.290629 
 57.76 5.031170   0.459857  0.351457 
 57.76 5.048110   0.533163  0.411225 
 57.76 5.065030   0.528500  0.413365 
 57.76 5.081950   0.367759  0.291853 
 57.76 5.098890   0.508986  0.409451 
 57.76 5.115800   0.523332  0.426275 
 57.76 5.132420   0.550511  0.454847 
 91.90 0.350540  14.342130  0.036710 
 91.90 0.358950  13.820521  0.035597 
 91.90 0.366290  15.065386  0.033876 
 91.90 0.373220  14.258025  0.033157 
 91.90 0.379490  13.987831  0.032671 
 91.90 0.387900  14.114427  0.034035 
 91.90 0.395180  15.176028  0.034126 
 91.90 0.402520  24.877032  0.039223 
 91.90 0.409550  27.861226  0.041648 
 91.90 0.417310  31.535758  0.045496 
 91.90 0.424360  32.646389  0.048379 
 91.90 0.431840  34.049742  0.052822 
 91.90 0.439190  40.043327  0.055827 
 91.90 0.446520  46.463068  0.059586 
 91.90 0.453720  51.702940  0.064061 
 91.90 0.461630  53.960273  0.066331 
 91.90 0.468410  55.111045  0.069219 
 91.90 0.476220  58.837054  0.072767 
 91.90 0.486290  58.476000  0.076643 
 91.90 0.489670  58.834371  0.077339 
 91.90 0.497770  63.922417  0.083249 
 91.90 0.506280  63.918567  0.084867 
 91.90 0.512220  64.324504  0.087106 
 91.90 0.519630  62.166056  0.088467 
 91.90 0.527660  65.920955  0.090372 
 91.90 0.534160  68.525462  0.092580 
 91.90 0.541560  66.695712  0.091280 
 91.90 0.549540  70.038805  0.095075 
 91.90 0.556140  70.137048  0.097053 
 91.90 0.563530  70.589279  0.098561 
 91.90 0.571310  71.485894  0.099490 
 91.90 0.578100  71.606831  0.099765 
 91.90 0.585480  72.529953  0.102562 
 91.90 0.593120  71.193833  0.102613 
 91.90 0.599380  70.406892  0.102079 
 91.90 0.607570  73.022108  0.106782 
 91.90 0.615050  63.468789  0.096085 
 91.90 0.622070  58.591893  0.088925 
 91.90 0.629400  70.960319  0.109012 
 91.90 0.637040  71.903491  0.112144 
 91.90 0.644080  69.893650  0.111047 
 91.90 0.651420  67.917857  0.110784 
 91.90 0.659100  64.408300  0.108468 
 91.90 0.666090  64.126409  0.106588 
 91.90 0.673420  66.248425  0.112028 
 91.90 0.681020  66.999979  0.115638 
 91.90 0.688030  65.538860  0.115185 
 91.90 0.695350  63.811785  0.114293 
 91.90 0.702880  55.407882  0.101356 
 91.90 0.710000  57.490484  0.106358 
 91.90 0.717330  49.230412  0.093532 
 91.90 0.724840  26.004744  0.049758 
 91.90 0.731980  26.613237  0.051829 
 91.90 0.739300  47.496313  0.094713 
 91.90 0.746760  56.733578  0.114297 
 91.90 0.753960  55.856285  0.113998 
 91.90 0.761280  52.667734  0.109536 
 91.90 0.768740  49.251745  0.104709 
 91.90 0.775950  46.074408  0.098990 
 91.90 0.783280  37.720021  0.081875 
 91.90 0.790720  37.045166  0.082000 
 91.90 0.797930  32.199105  0.072410 
 91.90 0.805220  36.446480  0.083357 
 91.90 0.812620  42.840287  0.099115 
 91.90 0.819890  45.886543  0.108993 
 91.90 0.827210  47.374918  0.113303 
 91.90 0.834630  44.394777  0.108620 
 91.90 0.841900  34.080861  0.084554 
 91.90 0.849220  37.387311  0.096483 
 91.90 0.856630  26.670622  0.070521 
 91.90 0.863910  12.869289  0.034116 
 91.90 0.871220  20.461915  0.054412 
 91.90 0.878630  21.270310  0.056652 
 91.90 0.885890   3.449086  0.009337 
 91.90 0.893210   7.270661  0.019596 
 91.90 0.909667  12.488036  0.034816 
 91.90 0.926122  31.709523  0.091396 
 91.90 0.942572  38.746249  0.115622 
 91.90 0.959010  33.860794  0.104805 
 91.90 0.975452  17.593137  0.056474 
 91.90 0.991881   8.484189  0.028230 
 91.90 1.008310   6.347329  0.021863 
 91.90 1.024730   7.859415  0.028163 
 91.90 1.041150  18.564486  0.069089 
 91.90 1.057560  27.715979  0.107261 
 91.90 1.073950  29.400230  0.118074 
 91.90 1.090360  28.291534  0.117025 
 91.90 1.106760  21.471348  0.091846 
 91.90 1.123170  10.474775  0.045976 
 91.90 1.139560   1.577643  0.007138 
 91.90 1.155950   1.318914  0.006137 
 91.90 1.172340   0.513027  0.002464 
 91.90 1.188720   1.172456  0.005792 
 91.90 1.205110   3.098451  0.015706 
 91.90 1.221500  11.368707  0.059241 
 91.90 1.237880  12.570068  0.067390 
 91.90 1.254270  17.113063  0.094727 
 91.90 1.270650  20.375919  0.116025 
 91.90 1.287020  21.295847  0.125398 
 91.90 1.303400  19.970991  0.121313 
 91.90 1.319790  11.464246  0.072243 
 91.90 1.336170   4.802975  0.031354 
 91.90 1.352560   1.876752  0.012697 
 91.90 1.368940   0.918891  0.006409 
 91.90 1.385320   0.778815  0.005573 
 91.90 1.401700   0.583507  0.004277 
 91.90 1.418100   0.683471  0.005146 
 91.90 1.434490   1.771368  0.013737 
 91.90 1.450890   3.025684  0.024095 
 91.90 1.467290   4.527890  0.036964 
 91.90 1.483690   5.921999  0.049585 
 91.90 1.500090  10.700124  0.091673 
 91.90 1.516510  11.977422  0.105886 
 91.90 1.532930  13.276296  0.119886 
 91.90 1.549350  13.944374  0.129320 
 91.90 1.565780  14.014814  0.133580 
 91.90 1.582210  14.219131  0.139385 
 91.90 1.598650  13.987058  0.141814 
 91.90 1.615120  13.056807  0.135470 
 91.90 1.631540   9.199974  0.098369 
 91.90 1.647990   4.385760  0.048728 
 91.90 1.664460   0.925479  0.010514 
 91.90 1.680930   0.864811  0.010155 
 91.90 1.697390   0.692474  0.008411 
 91.90 1.713870   0.195751  0.002456 
 91.90 1.730340   0.186897  0.002414 
 91.90 1.746820   0.668355  0.009067 
 91.90 1.763300   0.631376  0.008763 
 91.90 1.779780   0.227858  0.003265 
 91.90 1.796260   0.255412  0.003776 
 91.90 1.812740   0.951884  0.014474 
 91.90 1.829220   2.171344  0.034653 
 91.90 1.845700   1.696115  0.027662 
 91.90 1.862180   2.055828  0.034594 
 91.90 1.878660   4.011372  0.070115 
 91.90 1.895140   4.835764  0.086373 
 91.90 1.911610   4.063665  0.075053 
 91.90 1.928080   2.952125  0.056111 
 91.90 1.944550   3.163681  0.062135 
 91.90 1.961010   3.125525  0.063642 
 91.90 1.977480   3.195948  0.066647 
 91.90 1.993940   3.183965  0.068427 
 91.90 2.010410   2.812195  0.062204 
 91.90 2.026890   2.284430  0.051957 
 91.90 2.043360   1.738135  0.041000 
 91.90 2.059840   1.187486  0.028881 
 91.90 2.076330   0.739129  0.018689 
 91.90 2.092830   0.403602  0.010512 
 91.90 2.109340   0.234501  0.006279 
 91.90 2.125870   0.208124  0.005713 
 91.90 2.142400   0.309041  0.008669 
 91.90 2.158950   0.307299  0.008827 
 91.90 2.175520   0.123049  0.003728 
 91.90 2.192110   0.095822  0.002916 
 91.90 2.208700   0.062211  0.001938 
 91.90 2.225320   0.051765  0.001657 
 91.90 2.241950   0.049140  0.001627 
 91.90 2.258580   0.048322  0.001646 
 91.90 2.275220   0.046953  0.001645 
 91.90 2.291850   0.044769  0.001610 
 91.90 2.308490   0.043226  0.001596 
 91.90 2.325120   0.038463  0.001456 
 91.90 2.341740   0.032035  0.001251 
 91.90 2.358360   0.035749  0.001432 
 91.90 2.374960   0.036072  0.001480 
 91.90 2.391560   0.038463  0.001629 
 91.90 2.408150   0.029828  0.001283 
 91.90 2.424740   0.034876  0.001548 
 91.90 2.441320   0.045245  0.002046 
 91.90 2.457890   0.107497  0.005022 
 91.90 2.474470   0.308070  0.014669 
 91.90 2.491040   0.480503  0.023607 
 91.90 2.507610   0.623351  0.031050 
 91.90 2.524180   0.430940  0.022046 
 91.90 2.540750   0.364221  0.019083 
 91.90 2.557330   0.284825  0.015408 
 91.90 2.573900   0.113687  0.006281 
 91.90 2.590480   0.073870  0.004179 
 91.90 2.607070   0.132173  0.007591 
 91.90 2.623670   0.443522  0.026035 
 91.90 2.640260   1.137685  0.068952 
 91.90 2.656860   1.658195  0.101935 
 91.90 2.673470   1.893277  0.120175 
 91.90 2.690100   1.977500  0.127949 
 91.90 2.706720   2.049977  0.135553 
 91.90 2.723340   2.095569  0.141786 
 91.90 2.740000   2.070767  0.143275 
 91.90 2.756630   2.100026  0.148728 
 91.90 2.773270   2.085464  0.151811 
 91.90 2.789930   2.100297  0.155541 
 91.90 2.806590   1.946910  0.147050 
 91.90 2.823260   1.798326  0.138852 
 91.90 2.839920   1.613718  0.127366 
 91.90 2.856590   1.478068  0.119412 
 91.90 2.873260   1.273966  0.105547 
 91.90 2.889940   1.215386  0.102914 
 91.90 2.906610   1.164061  0.100290 
 91.90 2.923300   1.280476  0.112731 
 91.90 2.939980   1.202357  0.108279 
 91.90 2.956660   1.179296  0.108465 
 91.90 2.973340   1.145001  0.107342 
 91.90 2.990010   1.001061  0.095869 
 91.90 3.006770   1.070914  0.104965 
 91.90 3.023430   1.199297  0.119853 
 91.90 3.040120   1.151392  0.118234 
 91.90 3.056840   1.108252  0.116076 
 91.90 3.073530   0.999266  0.106442 
 91.90 3.090230   0.986614  0.107225 
 91.90 3.106930   0.939945  0.104252 
 91.90 3.123610   0.847220  0.096267 
 91.90 3.140320   0.716858  0.082748 
 91.90 3.157020   0.534704  0.063077 
 91.90 3.173720   0.300592  0.036160 
 91.90 3.190410   0.108753  0.013331 
 91.90 3.207110   0.039522  0.004941 
 91.90 3.223800   0.009378  0.001196 
 91.90 3.240500   0.008513  0.001108 
 91.90 3.257180   0.006845  0.000908 
 91.90 3.273870   0.004726  0.000639 
 91.90 3.290560   0.004191  0.000580 
 91.90 3.307240   0.003165  0.000451 
 91.90 3.323910   0.009457  0.001364 
 91.90 3.340590   0.006239  0.000913 
 91.90 3.357260   0.005432  0.000810 
 91.90 3.373920   0.006821  0.001037 
 91.90 3.390580   0.003222  0.000499 
 91.90 3.407250   0.008182  0.001298 
 91.90 3.423910   0.006292  0.001014 
 91.90 3.440570   0.003589  0.000588 
 91.90 3.457230   0.001867  0.000311 
 91.90 3.473890   0.001602  0.000272 
 91.90 3.490540   0.004344  0.000751 
 91.90 3.507200   0.003837  0.000675 
 91.90 3.523840   0.004007  0.000718 
 91.90 3.540500   0.001865  0.000340 
 91.90 3.557160   0.001892  0.000352 
 91.90 3.573810   0.004255  0.000806 
 91.90 3.590470   0.003949  0.000761 
 91.90 3.607110   0.003658  0.000717 
 91.90 3.623770   0.004669  0.000930 
 91.90 3.640430   0.010803  0.002192 
 91.90 3.657090   0.016608  0.003441 
 91.90 3.673740   0.032419  0.006836 
 91.90 3.690400   0.047536  0.010238 
 91.90 3.707060   0.048107  0.010598 
 91.90 3.723730   0.029062  0.006487 
 91.90 3.740390   0.022183  0.005050 
 91.90 3.757050   0.010093  0.002356 
 91.90 3.773710   0.008892  0.002086 
 91.90 3.790380   0.004221  0.001006 
 91.90 3.807040   0.003587  0.000869 
 91.90 3.823710   0.006755  0.001661 
 91.90 3.840390   0.011590  0.002893 
 91.90 3.857060   0.012449  0.003156 
 91.90 3.873700   0.038604  0.009972 
 91.90 3.890410   0.018556  0.004873 
 91.90 3.907090   0.028838  0.007695 
 91.90 3.923780   0.030369  0.008224 
 91.90 3.940470   0.039418  0.010851 
 91.90 3.957170   0.055167  0.015479 
 91.90 3.973870   0.097958  0.027935 
 91.90 3.990570   0.084440  0.024506 
 91.90 4.007280   0.145138  0.042884 
 91.90 4.023980   0.137162  0.041146 
 91.90 4.040700   0.185487  0.056467 
 91.90 4.057430   0.162567  0.050690 
 91.90 4.074140   0.218396  0.068869 
 91.90 4.090880   0.193840  0.061783 
 91.90 4.107600   0.243950  0.078899 
 91.90 4.124330   0.177988  0.058439 
 91.90 4.141070   0.178694  0.059597 
 91.90 4.157810   0.113564  0.038524 
 91.90 4.174560   0.079827  0.027486 
 91.90 4.191300   0.051595  0.018062 
 91.90 4.208040   0.035387  0.012618 
 91.90 4.224780   0.030437  0.010991 
 91.90 4.241530   0.026202  0.009578 
 91.90 4.258270   0.029634  0.011013 
 91.90 4.275020   0.041284  0.015561 
 91.90 4.291770   0.045818  0.017612 
 91.90 4.308520   0.016237  0.006459 
 91.90 4.325260   0.023116  0.009306 
 91.90 4.342010   0.035056  0.014303 
 91.90 4.358760   0.026942  0.011338 
 91.90 4.375500   0.024713  0.010617 
 91.90 4.392240   0.028437  0.012324 
 91.90 4.408980   0.028993  0.012851 
 91.90 4.425730   0.031804  0.014486 
 91.90 4.442480   0.041430  0.018994 
 91.90 4.459220   0.049743  0.023078 
 91.90 4.475990   0.062591  0.029797 
 91.90 4.492740   0.058295  0.028098 
 91.90 4.509490   0.071429  0.034734 
 91.90 4.526250   0.094218  0.046697 
 91.90 4.543010   0.100611  0.050911 
 91.90 4.559790   0.083480  0.042570 
 91.90 4.576540   0.107297  0.055381 
 91.90 4.593320   0.110770  0.058411 
 91.90 4.610090   0.118636  0.063323 
 91.90 4.626870   0.123426  0.066465 
 91.90 4.643640   0.132181  0.071984 
 91.90 4.660440   0.144996  0.080962 
 91.90 4.677210   0.167161  0.093770 
 91.90 4.694010   0.184382  0.104253 
 91.90 4.710790   0.142106  0.081353 
 91.90 4.727590   0.120970  0.070299 
 91.90 4.744400   0.095784  0.056222 
 91.90 4.761210   0.107415  0.063843 
 91.90 4.778030   0.157538  0.095045 
 91.90 4.794860   0.197194  0.120717 
 91.90 4.811690   0.212555  0.131767 
 91.90 4.828520   0.185922  0.116361 
 91.90 4.845360   0.172588  0.109211 
 91.90 4.862220   0.187158  0.120194 
 91.90 4.879080   0.167886  0.109499 
 91.90 4.895940   0.183071  0.120712 
 91.90 4.912830   0.192227  0.128262 
 91.90 4.929720   0.192618  0.130579 
 91.90 4.946610   0.204598  0.140461 
 91.90 4.963510   0.221970  0.154292 
 91.90 4.980430   0.246080  0.173006 
 91.90 4.997340   0.305732  0.218098 
 91.90 5.014250   0.377906  0.273294 
 91.90 5.031170   0.426752  0.312375 
 91.90 5.048110   0.529354  0.391074 
 91.90 5.065030   0.595360  0.445742 
 91.90 5.081950   0.383110  0.290913 
 91.90 5.098890   0.462066  0.355831 
 91.90 5.115800   0.535264  0.417458 
 91.90 5.132420   0.575990  0.455482 
110.20 0.350540  10.406363  0.027045 
110.20 0.358950   9.962775  0.026055 
110.20 0.366290  10.940896  0.024979 
110.20 0.373220  10.223826  0.024141 
110.20 0.379490  10.307554  0.024445 
110.20 0.387900  10.178151  0.024920 
110.20 0.395180  10.914111  0.024919 
110.20 0.402520  17.719010  0.028366 
110.20 0.409550  19.655392  0.029832 
110.20 0.417310  21.870146  0.032036 
110.20 0.424360  22.481560  0.033827 
110.20 0.431840  23.053134  0.036312 
110.20 0.439190  26.865146  0.038029 
110.20 0.446520  30.507705  0.039724 
110.20 0.453720  33.634622  0.042313 
110.20 0.461630  34.906106  0.043567 
110.20 0.468410  35.546390  0.045331 
110.20 0.476220  37.590960  0.047204 
110.20 0.486290  36.992870  0.049230 
110.20 0.489670  37.014021  0.049402 
110.20 0.497770  40.198873  0.053156 
110.20 0.506280  39.965430  0.053878 
110.20 0.512220  40.071323  0.055096 
110.20 0.519630  38.631839  0.055820 
110.20 0.527660  40.901333  0.056932 
110.20 0.534160  42.231633  0.057932 
110.20 0.541560  41.119765  0.057140 
110.20 0.549540  43.067090  0.059359 
110.20 0.556140  42.965236  0.060366 
110.20 0.563530  43.062159  0.061049 
110.20 0.571310  43.595216  0.061604 
110.20 0.578100  43.524486  0.061570 
110.20 0.585480  43.936080  0.063082 
110.20 0.593120  42.969218  0.062883 
110.20 0.599380  42.440493  0.062476 
110.20 0.607570  43.739844  0.064943 
110.20 0.615050  38.297403  0.058868 
110.20 0.622070  35.054443  0.054019 
110.20 0.629400  42.102970  0.065673 
110.20 0.637040  42.487797  0.067282 
110.20 0.644080  41.402214  0.066789 
110.20 0.651420  40.203848  0.066585 
110.20 0.659100  38.014516  0.065002 
110.20 0.666090  37.816897  0.063822 
110.20 0.673420  38.930832  0.066844 
110.20 0.681020  39.177827  0.068656 
110.20 0.688030  38.262009  0.068278 
110.20 0.695350  37.242451  0.067728 
110.20 0.702880  32.674343  0.060687 
110.20 0.710000  33.758322  0.063411 
110.20 0.717330  29.013272  0.055968 
110.20 0.724840  15.654144  0.030413 
110.20 0.731980  15.897636  0.031436 
110.20 0.739300  27.913812  0.056517 
110.20 0.746760  32.967433  0.067436 
110.20 0.753960  32.557773  0.067467 
110.20 0.761280  30.850758  0.065147 
110.20 0.768740  28.845440  0.062266 
110.20 0.775950  27.079412  0.059073 
110.20 0.783280  22.195660  0.048917 
110.20 0.790720  21.854377  0.049117 
110.20 0.797930  19.036756  0.043467 
110.20 0.805220  21.445053  0.049800 
110.20 0.812620  25.148155  0.059076 
110.20 0.819890  26.907033  0.064892 
110.20 0.827210  27.576949  0.066965 
110.20 0.834630  25.850914  0.064220 
110.20 0.841900  20.205169  0.050898 
110.20 0.849220  21.934473  0.057474 
110.20 0.856630  15.775315  0.042352 
110.20 0.863910   7.802093  0.021001 
110.20 0.871220  12.090447  0.032644 
110.20 0.878630  12.559117  0.033964 
110.20 0.885890   2.194665  0.006032 
110.20 0.893210   3.539419  0.009705 
110.20 0.909667   7.611107  0.021600 
110.20 0.926122  18.805878  0.055205 
110.20 0.942572  22.801304  0.069253 
110.20 0.959010  19.644943  0.061891 
110.20 0.975452   9.972005  0.032579 
110.20 0.991881   4.693009  0.015893 
110.20 1.008310   3.635362  0.012752 
110.20 1.024730   4.727087  0.017245 
110.20 1.041150  11.236756  0.042581 
110.20 1.057560  16.499532  0.064990 
110.20 1.073950  17.470038  0.071409 
110.20 1.090360  16.821163  0.070778 
110.20 1.106760  12.719196  0.055335 
110.20 1.123170   5.935836  0.026508 
110.20 1.139560   0.866172  0.003987 
110.20 1.155950   0.759993  0.003596 
110.20 1.172340   0.270285  0.001320 
110.20 1.188720   0.735665  0.003697 
110.20 1.205110   2.019824  0.010418 
110.20 1.221500   7.101095  0.037620 
110.20 1.237880   7.633182  0.041648 
110.20 1.254270  10.423774  0.058681 
110.20 1.270650  12.282249  0.071151 
110.20 1.287020  12.802359  0.076823 
110.20 1.303400  11.955998  0.073899 
110.20 1.319790   6.777429  0.043479 
110.20 1.336170   2.967454  0.019722 
110.20 1.352560   1.144696  0.007881 
110.20 1.368940   0.511234  0.003627 
110.20 1.385320   0.474833  0.003455 
110.20 1.401700   0.320119  0.002387 
110.20 1.418100   0.457790  0.003506 
110.20 1.434490   1.186846  0.009363 
110.20 1.450890   1.922272  0.015574 
110.20 1.467290   2.879400  0.023901 
110.20 1.483690   3.782275  0.032208 
110.20 1.500090   6.647073  0.057878 
110.20 1.516510   7.308177  0.065656 
110.20 1.532930   8.110879  0.074506 
110.20 1.549350   8.491498  0.080089 
110.20 1.565780   8.468176  0.082068 
110.20 1.582210   8.618536  0.085981 
110.20 1.598650   8.464768  0.087278 
110.20 1.615120   7.829608  0.082720 
110.20 1.631540   5.438058  0.059074 
110.20 1.647990   2.651079  0.029999 
110.20 1.664460   0.602171  0.006957 
110.20 1.680930   0.559703  0.006695 
110.20 1.697390   0.423650  0.005228 
110.20 1.713870   0.111331  0.001422 
110.20 1.730340   0.104237  0.001370 
110.20 1.746820   0.466162  0.006431 
110.20 1.763300   0.455495  0.006433 
110.20 1.779780   0.180754  0.002636 
110.20 1.796260   0.218661  0.003288 
110.20 1.812740   0.611636  0.009460 
110.20 1.829220   1.433165  0.023247 
110.20 1.845700   1.106785  0.018383 
110.20 1.862180   1.401093  0.023971 
110.20 1.878660   2.623352  0.046786 
110.20 1.895140   3.068017  0.055748 
110.20 1.911610   2.575361  0.048357 
110.20 1.928080   1.888424  0.036518 
110.20 1.944550   2.054166  0.041108 
110.20 1.961010   2.031754  0.041978 
110.20 1.977480   2.106855  0.044704 
110.20 1.993940   2.101090  0.045929 
110.20 2.010410   1.864459  0.041942 
110.20 2.026890   1.542603  0.035712 
110.20 2.043360   1.166397  0.027996 
110.20 2.059840   0.853735  0.021140 
110.20 2.076330   0.504774  0.012982 
110.20 2.092830   0.294470  0.007805 
110.20 2.109340   0.181725  0.004946 
110.20 2.125870   0.146831  0.004100 
110.20 2.142400   0.217403  0.006201 
110.20 2.158950   0.233447  0.006822 
110.20 2.175520   0.095608  0.002945 
110.20 2.192110   0.082739  0.002560 
110.20 2.208700   0.039630  0.001257 
110.20 2.225320   0.029276  0.000952 
110.20 2.241950  -0.002159 -0.000073 
110.20 2.258580   0.042237  0.001464 
110.20 2.275220   0.008704  0.000310 
110.20 2.291850   0.027991  0.001024 
110.20 2.308490   0.024319  0.000913 
110.20 2.325120   0.032397  0.001248 
110.20 2.341740   0.016816  0.000667 
110.20 2.358360   0.030220  0.001232 
110.20 2.374960   0.024835  0.001036 
110.20 2.391560   0.019875  0.000857 
110.20 2.408150   0.022295  0.000974 
110.20 2.424740   0.022817  0.001030 
110.20 2.441320   0.028782  0.001324 
110.20 2.457890   0.078020  0.003709 
110.20 2.474470   0.221554  0.010728 
110.20 2.491040   0.352597  0.017617 
110.20 2.507610   0.442000  0.022384 
110.20 2.524180   0.303791  0.015802 
110.20 2.540750   0.261876  0.013964 
110.20 2.557330   0.203956  0.011219 
110.20 2.573900   0.068338  0.003837 
110.20 2.590480   0.052990  0.003050 
110.20 2.607070   0.103141  0.006019 
110.20 2.623670   0.337694  0.020190 
110.20 2.640260   0.793781  0.048828 
110.20 2.656860   1.085510  0.067871 
110.20 2.673470   1.218716  0.078684 
110.20 2.690100   1.282880  0.084381 
110.20 2.706720   1.317768  0.088604 
110.20 2.723340   1.346308  0.092626 
110.20 2.740000   1.336410  0.094017 
110.20 2.756630   1.356017  0.097708 
110.20 2.773270   1.356567  0.100359 
110.20 2.789930   1.362091  0.102545 
110.20 2.806590   1.264380  0.097112 
110.20 2.823260   1.171060  0.091941 
110.20 2.839920   1.054320  0.084618 
110.20 2.856590   0.996506  0.081857 
110.20 2.873260   0.871243  0.073451 
110.20 2.889940   0.850641  0.073189 
110.20 2.906610   0.839561  0.073544 
110.20 2.923300   0.888811  0.079575 
110.20 2.939980   0.849158  0.077742 
110.20 2.956660   0.815290  0.076238 
110.20 2.973340   0.776630  0.074023 
110.20 2.990010   0.710198  0.069159 
110.20 3.006770   0.726986  0.072447 
110.20 3.023430   0.801057  0.081400 
110.20 3.040120   0.762774  0.079716 
110.20 3.056840   0.719281  0.076529 
110.20 3.073530   0.657492  0.071205 
110.20 3.090230   0.649812  0.071808 
110.20 3.106930   0.620020  0.069916 
110.20 3.123610   0.567348  0.065546 
110.20 3.140320   0.480836  0.056423 
110.20 3.157020   0.358803  0.043041 
110.20 3.173720   0.213002  0.026052 
110.20 3.190410   0.087086  0.010851 
110.20 3.207110   0.030493  0.003876 
110.20 3.223800   0.011443  0.001484 
110.20 3.240500   0.007502  0.000992 
110.20 3.257180  -0.000066 -0.000009 
110.20 3.273870   0.000930  0.000128 
110.20 3.290560   0.006104  0.000859 
110.20 3.307240  -0.003367 -0.000487 
110.20 3.323910   0.001712  0.000251 
110.20 3.340590   0.009447  0.001406 
110.20 3.357260  -0.001727 -0.000262 
110.20 3.373920   0.003613  0.000559 
110.20 3.390580   0.002664  0.000419 
110.20 3.407250   0.010204  0.001646 
110.20 3.423910   0.003237  0.000530 
110.20 3.440570  -0.001210 -0.000201 
110.20 3.457230   0.001591  0.000269 
110.20 3.473890   0.004301  0.000742 
110.20 3.490540  -0.003677 -0.000646 
110.20 3.507200  -0.003736 -0.000668 
110.20 3.523840   0.002298  0.000418 
110.20 3.540500   0.001376  0.000255 
110.20 3.557160   0.007527  0.001422 
110.20 3.573810   0.004568  0.000879 
110.20 3.590470   0.007591  0.001487 
110.20 3.607110   0.004503  0.000897 
110.20 3.623770   0.002534  0.000513 
110.20 3.640430   0.005036  0.001039 
110.20 3.657090   0.016775  0.003533 
110.20 3.673740   0.030597  0.006558 
110.20 3.690400   0.040084  0.008777 
110.20 3.707060   0.037020  0.008293 
110.20 3.723730   0.018731  0.004248 
110.20 3.740390   0.009866  0.002285 
110.20 3.757050   0.012944  0.003069 
110.20 3.773710   0.004523  0.001078 
110.20 3.790380   0.004905  0.001188 
110.20 3.807040   0.002954  0.000727 
110.20 3.823710   0.011130  0.002781 
110.20 3.840390   0.007497  0.001902 
110.20 3.857060   0.006778  0.001747 
110.20 3.873700   0.040287  0.010579 
110.20 3.890410   0.023379  0.006241 
110.20 3.907090   0.020521  0.005565 
110.20 3.923780   0.029872  0.008222 
110.20 3.940470   0.030143  0.008435 
110.20 3.957170   0.047918  0.013669 
110.20 3.973870   0.073717  0.021365 
110.20 3.990570   0.065055  0.019195 
110.20 4.007280   0.107554  0.032297 
110.20 4.023980   0.121892  0.037164 
110.20 4.040700   0.136425  0.042220 
110.20 4.057430   0.134755  0.042724 
110.20 4.074140   0.160490  0.051407 
110.20 4.090880   0.152928  0.049539 
110.20 4.107600   0.185569  0.060996 
110.20 4.124330   0.141907  0.047353 
110.20 4.141070   0.137935  0.046762 
110.20 4.157810   0.102040  0.035180 
110.20 4.174560   0.060180  0.021062 
110.20 4.191300   0.045824  0.016305 
110.20 4.208040   0.032485  0.011775 
110.20 4.224780   0.033812  0.012405 
110.20 4.241530   0.030536  0.011346 
110.20 4.258270   0.024488  0.009250 
110.20 4.275020   0.042738  0.016373 
110.20 4.291770   0.036251  0.014177 
110.20 4.308520   0.009634  0.003897 
110.20 4.325260   0.027709  0.011333 
110.20 4.342010   0.028468  0.011809 
110.20 4.358760   0.021933  0.009393 
110.20 4.375500   0.020443  0.008922 
110.20 4.392240   0.025839  0.011379 
110.20 4.408980   0.026855  0.012114 
110.20 4.425730   0.027811  0.012871 
110.20 4.442480   0.034746  0.016183 
110.20 4.459220   0.042744  0.020159 
110.20 4.475990   0.054523  0.026397 
110.20 4.492740   0.049868  0.024414 
110.20 4.509490   0.065926  0.032580 
110.20 4.526250   0.073832  0.037219 
110.20 4.543010   0.085696  0.044055 
110.20 4.559790   0.074871  0.038787 
110.20 4.576540   0.089873  0.047150 
110.20 4.593320   0.090485  0.048520 
110.20 4.610090   0.093565  0.050727 
110.20 4.626870   0.097447  0.053315 
110.20 4.643640   0.098359  0.054454 
110.20 4.660440   0.127248  0.072223 
110.20 4.677210   0.128423  0.073167 
110.20 4.694010   0.160976  0.092473 
110.20 4.710790   0.115089  0.066966 
110.20 4.727590   0.089621  0.052913 
110.20 4.744400   0.083864  0.050021 
110.20 4.761210   0.089784  0.054228 
110.20 4.778030   0.132362  0.081177 
110.20 4.794860   0.173873  0.108154 
110.20 4.811690   0.179781  0.113247 
110.20 4.828520   0.163115  0.103722 
110.20 4.845360   0.145847  0.093784 
110.20 4.862220   0.149938  0.097864 
110.20 4.879080   0.145473  0.096425 
110.20 4.895940   0.150527  0.100846 
110.20 4.912830   0.165463  0.112207 
110.20 4.929720   0.164307  0.113196 
110.20 4.946610   0.181225  0.126433 
110.20 4.963510   0.189047  0.133526 
110.20 4.980430   0.210432  0.150335 
110.20 4.997340   0.278358  0.201813 
110.20 5.014250   0.325430  0.239166 
110.20 5.031170   0.388774  0.289146 
110.20 5.048110   0.471993  0.354266 
110.20 5.065030   0.515247  0.392030 
110.20 5.081950   0.337438  0.260427 
110.20 5.098890   0.418886  0.327807 
110.20 5.115800   0.480958  0.381154 
110.20 5.132420   0.511028  0.410704 
101.07 0.350540  12.160925  0.031613 
101.07 0.358950  11.558989  0.030237 
101.07 0.366290  12.658861  0.028909 
101.07 0.373220  11.878929  0.028056 
101.07 0.379490  12.000866  0.028468 
101.07 0.387900  11.868782  0.029067 
101.07 0.395180  12.898019  0.029456 
101.07 0.402520  21.093190  0.033776 
101.07 0.409550  23.633230  0.035879 
101.07 0.417310  26.555885  0.038910 
101.07 0.424360  27.385367  0.041217 
101.07 0.431840  28.290381  0.044573 
101.07 0.439190  33.095691  0.046862 
101.07 0.446520  37.970307  0.049454 
101.07 0.453720  41.718375  0.052497 
101.07 0.461630  43.471959  0.054272 
101.07 0.468410  44.365157  0.056592 
101.07 0.476220  47.025758  0.059068 
101.07 0.486290  46.314599  0.061651 
101.07 0.489670  46.470381  0.062040 
101.07 0.497770  50.525881  0.066829 
101.07 0.506280  50.308249  0.067839 
101.07 0.512220  50.486989  0.069435 
101.07 0.519630  48.725297  0.070422 
101.07 0.527660  51.663871  0.071932 
101.07 0.534160  53.382030  0.073247 
101.07 0.541560  52.021053  0.072308 
101.07 0.549540  54.555084  0.075212 
101.07 0.556140  54.507390  0.076603 
101.07 0.563530  54.673761  0.077531 
101.07 0.571310  55.407680  0.078317 
101.07 0.578100  55.497464  0.078528 
101.07 0.585480  56.000693  0.080425 
101.07 0.593120  54.858378  0.080303 
101.07 0.599380  54.282514  0.079930 
101.07 0.607570  55.945809  0.083088 
101.07 0.615050  48.831992  0.075081 
101.07 0.622070  44.714276  0.068923 
101.07 0.629400  53.999898  0.084252 
101.07 0.637040  54.608843  0.086500 
101.07 0.644080  53.139968  0.085747 
101.07 0.651420  51.623400  0.085520 
101.07 0.659100  48.797262  0.083461 
101.07 0.666090  48.533186  0.081929 
101.07 0.673420  50.144004  0.086119 
101.07 0.681020  50.509542  0.088537 
101.07 0.688030  49.323198  0.088039 
101.07 0.695350  47.965592  0.087252 
101.07 0.702880  41.883325  0.077812 
101.07 0.710000  43.323366  0.081400 
101.07 0.717330  37.171800  0.071725 
101.07 0.724840  20.034016  0.038932 
101.07 0.731980  20.345629  0.040242 
101.07 0.739300  35.873149  0.072652 
101.07 0.746760  42.490537  0.086939 
101.07 0.753960  41.947290  0.086948 
101.07 0.761280  39.643601  0.083737 
101.07 0.768740  37.001750  0.079894 
101.07 0.775950  34.648625  0.075604 
101.07 0.783280  28.352715  0.062503 
101.07 0.790720  27.888980  0.062696 
101.07 0.797930  24.281160  0.055456 
101.07 0.805220  27.406093  0.063660 
101.07 0.812620  32.193579  0.075646 
101.07 0.819890  34.494212  0.083212 
101.07 0.827210  35.475234  0.086168 
101.07 0.834630  33.169457  0.082422 
101.07 0.841900  25.805255  0.065022 
101.07 0.849220  28.039359  0.073489 
101.07 0.856630  20.146199  0.054101 
101.07 0.863910   9.988806  0.026894 
101.07 0.871220  15.430175  0.041672 
101.07 0.878630  16.012781  0.043315 
101.07 0.885890   2.829944  0.007780 
101.07 0.893210   4.535967  0.012440 
101.07 0.909667   9.629167  0.027335 
101.07 0.926122  23.524910  0.069077 
101.07 0.942572  28.524427  0.086659 
101.07 0.959010  24.602129  0.077529 
101.07 0.975452  12.365150  0.040408 
101.07 0.991881   5.905932  0.020005 
101.07 1.008310   4.652892  0.016326 
101.07 1.024730   5.946549  0.021700 
101.07 1.041150  13.984976  0.053010 
101.07 1.057560  20.557697  0.080996 
101.07 1.073950  21.737826  0.088878 
101.07 1.090360  20.838439  0.087705 
101.07 1.106760  15.697069  0.068309 
101.07 1.123170   7.260605  0.032433 
101.07 1.139560   1.036307  0.004771 
101.07 1.155950   1.010392  0.004782 
101.07 1.172340   0.396012  0.001935 
101.07 1.188720   0.947715  0.004764 
101.07 1.205110   2.506242  0.012930 
101.07 1.221500   8.695023  0.046076 
101.07 1.237880   9.342429  0.050987 
101.07 1.254270  12.888991  0.072578 
101.07 1.270650  15.166634  0.087883 
101.07 1.287020  15.799969  0.094835 
101.07 1.303400  14.661009  0.090642 
101.07 1.319790   8.224982  0.052779 
101.07 1.336170   3.566485  0.023709 
101.07 1.352560   1.415976  0.009751 
101.07 1.368940   0.702975  0.004988 
101.07 1.385320   0.535105  0.003895 
101.07 1.401700   0.402674  0.003003 
101.07 1.418100   0.478531  0.003666 
101.07 1.434490   1.395491  0.011011 
101.07 1.450890   2.313960  0.018753 
101.07 1.467290   3.538017  0.029375 
101.07 1.483690   4.570456  0.038931 
101.07 1.500090   8.126807  0.070782 
101.07 1.516510   9.057843  0.081396 
101.07 1.532930   9.971500  0.091622 
101.07 1.549350  10.485220  0.098920 
101.07 1.565780  10.467177  0.101468 
101.07 1.582210  10.671980  0.106495 
101.07 1.598650  10.432888  0.107599 
101.07 1.615120   9.644271  0.101919 
101.07 1.631540   6.781278  0.073685 
101.07 1.647990   2.996640  0.033919 
101.07 1.664460   0.760501  0.008788 
101.07 1.680930   0.789414  0.009445 
101.07 1.697390   0.512726  0.006329 
101.07 1.713870   0.154190  0.001970 
101.07 1.730340   0.155708  0.002047 
101.07 1.746820   0.570929  0.007879 
101.07 1.763300   0.542495  0.007663 
101.07 1.779780   0.149339  0.002178 
101.07 1.796260   0.254255  0.003824 
101.07 1.812740   0.808811  0.012513 
101.07 1.829220   1.731552  0.028095 
101.07 1.845700   1.293573  0.021491 
101.07 1.862180   1.684955  0.028835 
101.07 1.878660   3.121057  0.055677 
101.07 1.895140   3.708159  0.067398 
101.07 1.911610   3.110879  0.058428 
101.07 1.928080   2.269612  0.043901 
101.07 1.944550   2.518596  0.050415 
101.07 1.961010   2.514908  0.051974 
101.07 1.977480   2.553469  0.054195 
101.07 1.993940   2.526119  0.055234 
101.07 2.010410   2.271089  0.051103 
101.07 2.026890   1.846181  0.042751 
101.07 2.043360   1.386249  0.033281 
101.07 2.059840   1.000987  0.024793 
101.07 2.076330   0.624900  0.016075 
101.07 2.092830   0.384337  0.010189 
101.07 2.109340   0.230056  0.006263 
101.07 2.125870   0.183539  0.005127 
101.07 2.142400   0.293486  0.008374 
101.07 2.158950   0.287552  0.008406 
101.07 2.175520   0.146815  0.004524 
101.07 2.192110   0.062385  0.001931 
101.07 2.208700   0.056037  0.001778 
101.07 2.225320   0.022144  0.000720 
101.07 2.241950   0.020112  0.000677 
101.07 2.258580   0.035523  0.001231 
101.07 2.275220   0.051205  0.001824 
101.07 2.291850   0.037718  0.001380 
101.07 2.308490   0.034684  0.001302 
101.07 2.325120   0.028568  0.001101 
101.07 2.341740   0.041268  0.001638 
101.07 2.358360   0.038444  0.001568 
101.07 2.374960   0.018029  0.000752 
101.07 2.391560  -0.004356 -0.000188 
101.07 2.408150   0.029702  0.001299 
101.07 2.424740   0.026736  0.001208 
101.07 2.441320   0.053778  0.002474 
101.07 2.457890   0.102350  0.004867 
101.07 2.474470   0.277344  0.013433 
101.07 2.491040   0.423914  0.021186 
101.07 2.507610   0.532031  0.026950 
101.07 2.524180   0.362605  0.018866 
101.07 2.540750   0.317791  0.016950 
101.07 2.557330   0.241628  0.013295 
101.07 2.573900   0.095728  0.005377 
101.07 2.590480   0.063815  0.003675 
101.07 2.607070   0.126895  0.007407 
101.07 2.623670   0.405981  0.024280 
101.07 2.640260   0.960755  0.059114 
101.07 2.656860   1.328818  0.083106 
101.07 2.673470   1.518040  0.098036 
101.07 2.690100   1.560638  0.102677 
101.07 2.706720   1.616611  0.108727 
101.07 2.723340   1.639729  0.112843 
101.07 2.740000   1.632191  0.114856 
101.07 2.756630   1.651254  0.119013 
101.07 2.773270   1.653765  0.122378 
101.07 2.789930   1.657690  0.124832 
101.07 2.806590   1.538754  0.118217 
101.07 2.823260   1.422658  0.111723 
101.07 2.839920   1.285307  0.103184 
101.07 2.856590   1.184772  0.097348 
101.07 2.873260   1.040577  0.087750 
101.07 2.889940   1.006413  0.086614 
101.07 2.906610   0.980180  0.085884 
101.07 2.923300   1.061609  0.095070 
101.07 2.939980   1.002823  0.091835 
101.07 2.956660   0.968388  0.090578 
101.07 2.973340   0.928561  0.088527 
101.07 2.990010   0.831789  0.081021 
101.07 3.006770   0.893538  0.089068 
101.07 3.023430   0.976862  0.099291 
101.07 3.040120   0.929441  0.097159 
101.07 3.056840   0.878463  0.093490 
101.07 3.073530   0.806743  0.087392 
101.07 3.090230   0.797473  0.088149 
101.07 3.106930   0.757968  0.085494 
101.07 3.123610   0.695261  0.080346 
101.07 3.140320   0.594257  0.069751 
101.07 3.157020   0.435893  0.052302 
101.07 3.173720   0.249837  0.030565 
101.07 3.190410   0.101221  0.012616 
101.07 3.207110   0.034162  0.004344 
101.07 3.223800   0.012553  0.001628 
101.07 3.240500   0.002622  0.000347 
101.07 3.257180   0.005721  0.000772 
101.07 3.273870   0.003906  0.000537 
101.07 3.290560  -0.000550 -0.000077 
101.07 3.307240   0.006164  0.000892 
101.07 3.323910   0.001870  0.000274 
101.07 3.340590   0.009447  0.001406 
101.07 3.357260   0.003965  0.000601 
101.07 3.373920   0.003514  0.000543 
101.07 3.390580  -0.001811 -0.000285 
101.07 3.407250   0.007982  0.001288 
101.07 3.423910   0.002393  0.000392 
101.07 3.440570   0.004538  0.000755 
101.07 3.457230   0.005999  0.001015 
101.07 3.473890  -0.000491 -0.000085 
101.07 3.490540   0.005975  0.001050 
101.07 3.507200   0.002608  0.000466 
101.07 3.523840   0.001145  0.000209 
101.07 3.540500   0.006132  0.001138 
101.07 3.557160   0.005660  0.001069 
101.07 3.573810   0.002048  0.000394 
101.07 3.590470   0.008579  0.001681 
101.07 3.607110   0.009543  0.001902 
101.07 3.623770   0.005416  0.001097 
101.07 3.640430   0.006862  0.001415 
101.07 3.657090   0.017137  0.003611 
101.07 3.673740   0.035479  0.007607 
101.07 3.690400   0.046420  0.010168 
101.07 3.707060   0.045876  0.010280 
101.07 3.723730   0.028723  0.006515 
101.07 3.740390   0.015474  0.003586 
101.07 3.757050   0.005256  0.001246 
101.07 3.773710   0.008187  0.001952 
101.07 3.790380   0.002372  0.000575 
101.07 3.807040   0.002641  0.000650 
101.07 3.823710   0.001073  0.000268 
101.07 3.840390   0.010126  0.002569 
101.07 3.857060   0.013510  0.003482 
101.07 3.873700   0.062317  0.016368 
101.07 3.890410   0.031547  0.008423 
101.07 3.907090   0.024647  0.006685 
101.07 3.923780   0.034799  0.009580 
101.07 3.940470   0.037376  0.010461 
101.07 3.957170   0.051996  0.014836 
101.07 3.973870   0.087395  0.025336 
101.07 3.990570   0.076356  0.022536 
101.07 4.007280   0.128938  0.038729 
101.07 4.023980   0.136298  0.041568 
101.07 4.040700   0.167702  0.051913 
101.07 4.057430   0.154135  0.048881 
101.07 4.074140   0.193179  0.061894 
101.07 4.090880   0.177898  0.057643 
101.07 4.107600   0.221030  0.072671 
101.07 4.124330   0.162728  0.054315 
101.07 4.141070   0.158522  0.053755 
101.07 4.157810   0.100239  0.034569 
101.07 4.174560   0.069501  0.024331 
101.07 4.191300   0.045705  0.016267 
101.07 4.208040   0.042415  0.015379 
101.07 4.224780   0.035073  0.012870 
101.07 4.241530   0.021620  0.008036 
101.07 4.258270   0.028721  0.010851 
101.07 4.275020   0.036764  0.014087 
101.07 4.291770   0.040879  0.015991 
101.07 4.308520   0.008363  0.003384 
101.07 4.325260   0.028401  0.011619 
101.07 4.342010   0.032259  0.013385 
101.07 4.358760   0.027754  0.011890 
101.07 4.375500   0.023217  0.010136 
101.07 4.392240   0.027654  0.012181 
101.07 4.408980   0.031502  0.014214 
101.07 4.425730   0.035122  0.016258 
101.07 4.442480   0.040113  0.018688 
101.07 4.459220   0.046507  0.021939 
101.07 4.475990   0.057280  0.027739 
101.07 4.492740   0.053406  0.026153 
101.07 4.509490   0.064041  0.031656 
101.07 4.526250   0.084732  0.042725 
101.07 4.543010   0.098056  0.050422 
101.07 4.559790   0.087150  0.045160 
101.07 4.576540   0.097143  0.050977 
101.07 4.593320   0.106130  0.056924 
101.07 4.610090   0.109880  0.059588 
101.07 4.626870   0.115884  0.063419 
101.07 4.643640   0.119691  0.066282 
101.07 4.660440   0.140568  0.079804 
101.07 4.677210   0.149661  0.085289 
101.07 4.694010   0.171459  0.098522 
101.07 4.710790   0.134150  0.078078 
101.07 4.727590   0.105726  0.062438 
101.07 4.744400   0.080111  0.047795 
101.07 4.761210   0.102338  0.061827 
101.07 4.778030   0.145286  0.089127 
101.07 4.794860   0.185369  0.115335 
101.07 4.811690   0.189973  0.119699 
101.07 4.828520   0.165455  0.105238 
101.07 4.845360   0.161208  0.103688 
101.07 4.862220   0.168974  0.110318 
101.07 4.879080   0.164052  0.108769 
101.07 4.895940   0.169884  0.113844 
101.07 4.912830   0.176550  0.119757 
101.07 4.929720   0.169942  0.117109 
101.07 4.946610   0.194845  0.135971 
101.07 4.963510   0.206905  0.146178 
101.07 4.980430   0.231718  0.165586 
101.07 4.997340   0.284628  0.206414 
101.07 5.014250   0.349709  0.257077 
101.07 5.031170   0.392146  0.291731 
101.07 5.048110   0.484144  0.363482 
101.07 5.065030   0.541171  0.411863 
101.07 5.081950   0.341263  0.263449 
101.07 5.098890   0.430276  0.336810 
101.07 5.115800   0.501454  0.397502 
101.07 5.132420   0.535102  0.430165 
