#Title: Jupiter and Saturn as Spectral Analogs for 
#       Extrasolar Gas Giants and Brown Dwarfs 
#Authors: Coulter D.J., Barnes J.W., Fortney J.J.
#Figure: Disk-integrated spectra of Jupiter for six phase angles
#================================================================================
#Byte-by-byte Description of file: dbf4.txt
#--------------------------------------------------------------------------------
#   Bytes Format Units        Label       Explanations
#--------------------------------------------------------------------------------
#   1-  6 F6.2   deg          Phase       Phase angle
#   8- 15 F8.6   um           Wavelength  Wavelength
#  17- 27 F11.6  uW/cm2/sr/um Flux        Spectral flux radiance
#  29- 37 F9.6   ---          I/F         Apparent reflectance
#--------------------------------------------------------------------------------
  1.66 0.350540  338.204774  0.269482 
  1.66 0.358950  339.425409  0.272154 
  1.66 0.366290  405.555318  0.283880 
  1.66 0.373220  393.473219  0.284847 
  1.66 0.379490  411.292365  0.299048 
  1.66 0.387900  390.840370  0.293384 
  1.66 0.395180  413.680144  0.289580 
  1.66 0.402520  678.668578  0.333099 
  1.66 0.409550  720.669637  0.335353 
  1.66 0.417310  775.028309  0.348071 
  1.66 0.424360  758.605114  0.349960 
  1.66 0.431840  737.311497  0.356065 
  1.66 0.439190  838.361660  0.363852 
  1.66 0.446520  946.193117  0.377737 
  1.66 0.453720 1013.455300  0.390892 
  1.66 0.461630 1025.097929  0.392267 
  1.66 0.468410 1008.740397  0.394404 
  1.66 0.476220 1050.414419  0.404411 
  1.66 0.486290 1029.194914  0.419922 
  1.66 0.489670 1012.532564  0.414334 
  1.66 0.497770 1091.375280  0.442461 
  1.66 0.506280 1062.729429  0.439249 
  1.66 0.512220 1062.113520  0.447733 
  1.66 0.519630 1005.071352  0.445247 
  1.66 0.527660 1052.244287  0.449058 
  1.66 0.534160 1079.064805  0.453825 
  1.66 0.541560 1038.864045  0.442603 
  1.66 0.549540 1073.241672  0.453524 
  1.66 0.556140 1052.941828  0.453567 
  1.66 0.563530 1051.590496  0.457078 
  1.66 0.571310 1050.881782  0.455292 
  1.66 0.578100 1045.379993  0.453394 
  1.66 0.585480 1040.238252  0.457910 
  1.66 0.593120 1001.561713  0.449380 
  1.66 0.599380  972.223442  0.438798 
  1.66 0.607570 1004.601422  0.457312 
  1.66 0.615050  884.226270  0.416712 
  1.66 0.622070  829.047239  0.391690 
  1.66 0.629400  932.108300  0.445760 
  1.66 0.637040  926.547841  0.449851 
  1.66 0.644080  869.637952  0.430116 
  1.66 0.651420  839.938224  0.426499 
  1.66 0.659100  816.326429  0.427959 
  1.66 0.666090  828.684524  0.428780 
  1.66 0.673420  841.988417  0.443236 
  1.66 0.681020  834.679288  0.448456 
  1.66 0.688030  810.896329  0.443649 
  1.66 0.695350  777.725212  0.433630 
  1.66 0.702880  698.923903  0.398001 
  1.66 0.710000  706.662550  0.406970 
  1.66 0.717330  638.048846  0.377362 
  1.66 0.724840  406.554216  0.242163 
  1.66 0.731980  406.788659  0.246618 
  1.66 0.739300  606.120135  0.376257 
  1.66 0.746760  669.938144  0.420151 
  1.66 0.753960  646.609300  0.410813 
  1.66 0.761280  594.388629  0.384823 
  1.66 0.768740  565.070642  0.373973 
  1.66 0.775950  547.987458  0.366505 
  1.66 0.783280  461.783296  0.312027 
  1.66 0.790720  409.902591  0.282447 
  1.66 0.797930  409.354293  0.286568 
  1.66 0.805220  459.768414  0.327344 
  1.66 0.812620  498.456592  0.358999 
  1.66 0.819890  510.118098  0.377189 
  1.66 0.827210  526.632343  0.392080 
  1.66 0.834630  497.356802  0.378811 
  1.66 0.841900  418.434427  0.323167 
  1.66 0.849220  440.448763  0.353834 
  1.66 0.856630  342.461045  0.281884 
  1.66 0.863910  196.833554  0.162436 
  1.66 0.871220  276.214511  0.228651 
  1.66 0.878630  270.888429  0.224599 
  1.66 0.885890   51.788741  0.043641 
  1.66 0.893210  113.834621  0.094704 
  1.66 0.909667  199.259434  0.170895 
  1.66 0.926122  407.845600  0.362053 
  1.66 0.942572  439.973403  0.405522 
  1.66 0.959010  426.763804  0.407425 
  1.66 0.975452  237.752619  0.235167 
  1.66 0.991881  121.993879  0.125062 
  1.66 1.008310   91.919432  0.097465 
  1.66 1.024730  100.830726  0.111242 
  1.66 1.041150  170.327473  0.195000 
  1.66 1.057560  279.994805  0.333712 
  1.66 1.073950  308.446049  0.381509 
  1.66 1.090360  286.043537  0.365371 
  1.66 1.106760  220.125534  0.290240 
  1.66 1.123170   96.859540  0.131171 
  1.66 1.139560   16.506047  0.023049 
  1.66 1.155950   13.270671  0.019092 
  1.66 1.172340    5.184264  0.007673 
  1.66 1.188720   12.166566  0.018539 
  1.66 1.205110   29.496325  0.046157 
  1.66 1.221500   78.938131  0.127231 
  1.66 1.237880   99.324710  0.164097 
  1.66 1.254270  154.166343  0.263561 
  1.66 1.270650  161.126661  0.283052 
  1.66 1.287020  161.444064  0.291814 
  1.66 1.303400  114.275392  0.214521 
  1.66 1.319790   62.574852  0.121344 
  1.66 1.336170   33.303506  0.066932 
  1.66 1.352560   12.565507  0.026206 
  1.66 1.368940    6.662922  0.014353 
  1.66 1.385320    5.426722  0.011999 
  1.66 1.401700    4.297653  0.009736 
  1.66 1.418100    5.283754  0.012293 
  1.66 1.434490   12.649052  0.030247 
  1.66 1.450890   22.345413  0.054872 
  1.66 1.467290   30.344263  0.076623 
  1.66 1.483690   30.059822  0.077733 
  1.66 1.500090   36.860073  0.097816 
  1.66 1.516510   38.611503  0.105410 
  1.66 1.532930   45.133165  0.125797 
  1.66 1.549350   58.301970  0.167076 
  1.66 1.565780   77.684841  0.228777 
  1.66 1.582210   86.629149  0.261575 
  1.66 1.598650   99.180676  0.309741 
  1.66 1.615120   93.057713  0.297280 
  1.66 1.631540   60.189587  0.199532 
  1.66 1.647990   27.269781  0.092750 
  1.66 1.664460    5.645790  0.019854 
  1.66 1.680930    4.641796  0.016761 
  1.66 1.697390    3.231325  0.012181 
  1.66 1.713870    1.033901  0.003988 
  1.66 1.730340    0.943772  0.003762 
  1.66 1.746820    2.592273  0.010803 
  1.66 1.763300    2.985611  0.012786 
  1.66 1.779780    1.172836  0.005185 
  1.66 1.796260    1.415801  0.006468 
  1.66 1.812740    4.338902  0.020387 
  1.66 1.829220    8.518272  0.041797 
  1.66 1.845700    7.863109  0.039445 
  1.66 1.862180   10.493171  0.054649 
  1.66 1.878660   19.862610  0.106135 
  1.66 1.895140   23.283437  0.129343 
  1.66 1.911610   17.807463  0.101822 
  1.66 1.928080   10.998645  0.064498 
  1.66 1.944550    9.107368  0.055072 
  1.66 1.961010    7.148031  0.045388 
  1.66 1.977480    6.971562  0.044804 
  1.66 1.993940    6.559089  0.043535 
  1.66 2.010410    5.499829  0.037570 
  1.66 2.026890    4.570689  0.032035 
  1.66 2.043360    3.518734  0.025571 
  1.66 2.059840    2.352571  0.017622 
  1.66 2.076330    1.528324  0.011922 
  1.66 2.092830    0.777229  0.006240 
  1.66 2.109340    0.565615  0.004690 
  1.66 2.125870    0.479133  0.004059 
  1.66 2.142400    0.606166  0.005262 
  1.66 2.158950    0.611605  0.005429 
  1.66 2.175520    0.336792  0.003129 
  1.66 2.192110    0.335770  0.003165 
  1.66 2.208700    0.205484  0.001976 
  1.66 2.225320    0.192100  0.001907 
  1.66 2.241950    0.163066  0.001662 
  1.66 2.258580    0.074397  0.000780 
  1.66 2.275220    0.143390  0.001553 
  1.66 2.291850    0.119369  0.001325 
  1.66 2.308490    0.100623  0.001149 
  1.66 2.325120    0.133519  0.001557 
  1.66 2.341740    0.083918  0.001014 
  1.66 2.358360    0.037494  0.000463 
  1.66 2.374960    0.177825  0.002260 
  1.66 2.391560    0.121100  0.001580 
  1.66 2.408150    0.178330  0.002379 
  1.66 2.424740    0.127630  0.001745 
  1.66 2.441320    0.142106  0.001988 
  1.66 2.457890    0.271355  0.003903 
  1.66 2.474470    0.504332  0.007439 
  1.66 2.491040    0.825026  0.012502 
  1.66 2.507610    1.134607  0.017519 
  1.66 2.524180    1.105264  0.017473 
  1.66 2.540750    1.157864  0.018718 
  1.66 2.557330    0.803944  0.013443 
  1.66 2.573900    0.308140  0.005271 
  1.66 2.590480    0.240860  0.004201 
  1.66 2.607070    0.329477  0.005876 
  1.66 2.623670    1.089189  0.019699 
  1.66 2.640260    3.656572  0.068990 
  1.66 2.656860    7.299233  0.138738 
  1.66 2.673470    9.434287  0.184698 
  1.66 2.690100   10.570761  0.211852 
  1.66 2.706720   11.234386  0.229744 
  1.66 2.723340   11.547980  0.241644 
  1.66 2.740000   11.190646  0.239533 
  1.66 2.756630   10.800392  0.236289 
  1.66 2.773270    9.646278  0.217467 
  1.66 2.789930    8.022141  0.183918 
  1.66 2.806590    5.656158  0.132143 
  1.66 2.823260    3.691413  0.088176 
  1.66 2.839920    2.447248  0.059752 
  1.66 2.856590    1.900990  0.047507 
  1.66 2.873260    1.570162  0.040139 
  1.66 2.889940    1.493172  0.039233 
  1.66 2.906610    1.145774  0.030549 
  1.66 2.923300    0.956905  0.026055 
  1.66 2.939980    0.918264  0.025596 
  1.66 2.956660    0.721986  0.020544 
  1.66 2.973340    0.680339  0.019744 
  1.66 2.990010    0.600012  0.017775 
  1.66 3.006770    0.535253  0.016226 
  1.66 3.023430    0.692163  0.021406 
  1.66 3.040120    0.696984  0.022069 
  1.66 3.056840    0.681582  0.022182 
  1.66 3.073530    0.682275  0.022488 
  1.66 3.090230    0.707807  0.023799 
  1.66 3.106930    0.673259  0.023113 
  1.66 3.123610    0.562164  0.019740 
  1.66 3.140320    0.563881  0.020166 
  1.66 3.157020    0.496685  0.018115 
  1.66 3.173720    0.329276  0.012261 
  1.66 3.190410    0.094779  0.003598 
  1.66 3.207110    0.083889  0.003245 
  1.66 3.223800    0.028676  0.001132 
  1.66 3.240500    0.032655  0.001315 
  1.66 3.257180    0.056246  0.002312 
  1.66 3.273870    0.049923  0.002091 
  1.66 3.290560    0.001281  0.000055 
  1.66 3.307240    0.013451  0.000592 
  1.66 3.323910    0.052091  0.002325 
  1.66 3.340590    0.029590  0.001344 
  1.66 3.357260    0.037450  0.001728 
  1.66 3.373920    0.028633  0.001347 
  1.66 3.390580    0.034829  0.001671 
  1.66 3.407250    0.020612  0.001010 
  1.66 3.423910    0.032338  0.001615 
  1.66 3.440570    0.030134  0.001529 
  1.66 3.457230    0.001298  0.000067 
  1.66 3.473890    0.028541  0.001499 
  1.66 3.490540    0.008493  0.000455 
  1.66 3.507200    0.004669  0.000254 
  1.66 3.523840    0.030686  0.001701 
  1.66 3.540500    0.006883  0.000389 
  1.66 3.557160    0.042049  0.002420 
  1.66 3.573810    0.001314  0.000077 
  1.66 3.590470    0.034693  0.002071 
  1.66 3.607110    0.022554  0.001369 
  1.66 3.623770    0.017403  0.001074 
  1.66 3.640430    0.025433  0.001597 
  1.66 3.657090    0.049743  0.003188 
  1.66 3.673740    0.073324  0.004790 
  1.66 3.690400    0.074903  0.004991 
  1.66 3.707060    0.116115  0.007907 
  1.66 3.723730    0.052742  0.003656 
  1.66 3.740390    0.081182  0.005702 
  1.66 3.757050    0.038758  0.002808 
  1.66 3.773710    0.040420  0.002944 
  1.66 3.790380    0.035159  0.002596 
  1.66 3.807040    0.006009  0.000451 
  1.66 3.823710    0.062674  0.004776 
  1.66 3.840390    0.062818  0.004859 
  1.66 3.857060    0.026177  0.002056 
  1.66 3.873700    0.111607  0.008926 
  1.66 3.890410    0.079027  0.006430 
  1.66 3.907090    0.107779  0.008914 
  1.66 3.923780    0.074994  0.006294 
  1.66 3.940470    0.162695  0.013874 
  1.66 3.957170    0.220834  0.019178 
  1.66 3.973870    0.287097  0.025383 
  1.66 3.990570    0.287315  0.025809 
  1.66 4.007280    0.408098  0.037374 
  1.66 4.023980    0.392948  0.036526 
  1.66 4.040700    0.485292  0.045780 
  1.66 4.057430    0.414397  0.039936 
  1.66 4.074140    0.579444  0.056783 
  1.66 4.090880    0.538352  0.053202 
  1.66 4.107600    0.691106  0.069299 
  1.66 4.124330    0.553775  0.056356 
  1.66 4.141070    0.612897  0.063327 
  1.66 4.157810    0.370542  0.038950 
  1.66 4.174560    0.279827  0.029858 
  1.66 4.191300    0.225525  0.024462 
  1.66 4.208040    0.162455  0.017933 
  1.66 4.224780    0.171837  0.019266 
  1.66 4.241530    0.171994  0.019488 
  1.66 4.258270    0.216053  0.024885 
  1.66 4.275020    0.321994  0.037629 
  1.66 4.291770    0.341405  0.040553 
  1.66 4.308520    0.116306  0.014277 
  1.66 4.325260    0.214589  0.026831 
  1.66 4.342010    0.365482  0.046189 
  1.66 4.358760    0.327883  0.042503 
  1.66 4.375500    0.225458  0.030061 
  1.66 4.392240    0.233988  0.031473 
  1.66 4.408980    0.235695  0.032228 
  1.66 4.425730    0.238416  0.033649 
  1.66 4.442480    0.311540  0.044374 
  1.66 4.459220    0.370656  0.053299 
  1.66 4.475990    0.476119  0.069990 
  1.66 4.492740    0.494202  0.074033 
  1.66 4.509490    0.685634  0.103434 
  1.66 4.526250    0.977038  0.149712 
  1.66 4.543010    1.290298  0.202524 
  1.66 4.559790    1.295959  0.205267 
  1.66 4.576540    2.183945  0.349377 
  1.66 4.593320    2.793948  0.455389 
  1.66 4.610090    3.646916  0.604978 
  1.66 4.626870    3.998257  0.668245 
  1.66 4.643640    4.480993  0.756452 
  1.66 4.660440    5.293947  0.913951 
  1.66 4.677210    6.063901  1.058353 
  1.66 4.694010    6.219448  1.091860 
  1.66 4.710790    6.200757  1.100388 
  1.66 4.727590    5.838473  1.052612 
  1.66 4.744400    4.517195  0.822590 
  1.66 4.761210    5.820767  1.073067 
  1.66 4.778030    7.185565  1.342860 
  1.66 4.794860    6.980911  1.325964 
  1.66 4.811690    7.910876  1.521081 
  1.66 4.828520    7.055024  1.370948 
  1.66 4.845360    6.630922  1.301863 
  1.66 4.862220    6.202768  1.234679 
  1.66 4.879080    7.272149  1.470023 
  1.66 4.895940    6.405326  1.310994 
  1.66 4.912830    6.006155  1.242760 
  1.66 4.929720    6.878058  1.445355 
  1.66 4.946610    5.664028  1.206054 
  1.66 4.963510    5.230539  1.128029 
  1.66 4.980430    6.047663  1.319231 
  1.66 4.997340    7.241090  1.600956 
  1.66 5.014250    6.625516  1.485876 
  1.66 5.031170    4.916666  1.116858 
  1.66 5.048110    7.251287  1.663681 
  1.66 5.065030    8.090719  1.877863 
  1.66 5.081950    7.043005  1.657581 
  1.66 5.098890    5.658065  1.351341 
  1.66 5.115800    6.470813  1.565621 
  1.66 5.132420    6.639372  1.627255 
 15.19 0.350540  307.120863  0.244715 
 15.19 0.358950  307.905091  0.246881 
 15.19 0.366290  366.290805  0.256395 
 15.19 0.373220  351.873629  0.254732 
 15.19 0.379490  370.534199  0.269413 
 15.19 0.387900  347.872550  0.261130 
 15.19 0.395180  360.434294  0.252307 
 15.19 0.402520  604.551299  0.296721 
 15.19 0.409550  641.500885  0.298513 
 15.19 0.417310  693.026120  0.311243 
 15.19 0.424360  673.977630  0.310919 
 15.19 0.431840  653.131937  0.315413 
 15.19 0.439190  742.643047  0.322310 
 15.19 0.446520  852.204286  0.340215 
 15.19 0.453720  904.704228  0.348947 
 15.19 0.461630  919.565154  0.351884 
 15.19 0.468410  909.431665  0.355576 
 15.19 0.476220  942.426322  0.362835 
 15.19 0.486290  928.769207  0.378947 
 15.19 0.489670  914.221682  0.374104 
 15.19 0.497770  984.567487  0.399159 
 15.19 0.506280  954.426221  0.394485 
 15.19 0.512220  954.871653  0.402526 
 15.19 0.519630  903.575446  0.400284 
 15.19 0.527660  946.798374  0.404057 
 15.19 0.534160  974.474816  0.409837 
 15.19 0.541560  935.159794  0.398420 
 15.19 0.549540  969.718717  0.409777 
 15.19 0.556140  954.565522  0.411191 
 15.19 0.563530  954.548116  0.414898 
 15.19 0.571310  954.949961  0.413730 
 15.19 0.578100  951.798210  0.412806 
 15.19 0.585480  948.363687  0.417467 
 15.19 0.593120  915.863997  0.410929 
 15.19 0.599380  867.589432  0.391573 
 15.19 0.607570  919.281295  0.418472 
 15.19 0.615050  802.490739  0.378192 
 15.19 0.622070  749.851860  0.354273 
 15.19 0.629400  852.399547  0.407642 
 15.19 0.637040  848.680669  0.412045 
 15.19 0.644080  793.696367  0.392556 
 15.19 0.651420  766.528049  0.389223 
 15.19 0.659100  746.808777  0.391514 
 15.19 0.666090  756.598557  0.391481 
 15.19 0.673420  772.786938  0.406808 
 15.19 0.681020  763.286898  0.410099 
 15.19 0.688030  740.856283  0.405329 
 15.19 0.695350  713.251119  0.397682 
 15.19 0.702880  638.213177  0.363429 
 15.19 0.710000  645.197125  0.371572 
 15.19 0.717330  584.045156  0.345423 
 15.19 0.724840  361.329505  0.215226 
 15.19 0.731980  360.123896  0.218327 
 15.19 0.739300  550.953960  0.342011 
 15.19 0.746760  614.243633  0.385223 
 15.19 0.753960  592.224359  0.376260 
 15.19 0.761280  543.235797  0.351705 
 15.19 0.768740  517.447881  0.342456 
 15.19 0.775950  500.143043  0.334506 
 15.19 0.783280  419.873551  0.283708 
 15.19 0.790720  370.988893  0.255633 
 15.19 0.797930  371.036568  0.259744 
 15.19 0.805220  418.820654  0.298190 
 15.19 0.812620  453.380589  0.326534 
 15.19 0.819890  466.260519  0.344760 
 15.19 0.827210  483.869740  0.360243 
 15.19 0.834630  455.537860  0.346960 
 15.19 0.841900  383.195729  0.295951 
 15.19 0.849220  404.678120  0.325098 
 15.19 0.856630  313.517445  0.258061 
 15.19 0.863910  172.000682  0.141943 
 15.19 0.871220  252.776870  0.209249 
 15.19 0.878630  244.843262  0.203004 
 15.19 0.885890   45.447391  0.038298 
 15.19 0.893210  234.928684  0.194870 
 15.19 0.909667   69.896198  0.059011 
 15.19 0.926122  267.408295  0.233968 
 15.19 0.942572  369.580833  0.335141 
 15.19 0.959010  408.713713  0.383040 
 15.19 0.975452  337.750551  0.328225 
 15.19 0.991881  168.548552  0.169757 
 15.19 1.008310   85.688674  0.089451 
 15.19 1.024730   75.981369  0.082301 
 15.19 1.041150  103.667486  0.116653 
 15.19 1.057560  183.576129  0.214655 
 15.19 1.073950  265.592579  0.322519 
 15.19 1.090360  271.835975  0.342459 
 15.19 1.106760  237.204382  0.307326 
 15.19 1.123170  171.241486  0.229166 
 15.19 1.139560   48.138508  0.066219 
 15.19 1.155950   13.308970  0.018867 
 15.19 1.172340    7.343930  0.010693 
 15.19 1.188720    5.807864  0.008734 
 15.19 1.205110   12.429670  0.019233 
 15.19 1.221500   38.984528  0.061951 
 15.19 1.237880   78.387442  0.127713 
 15.19 1.254270  101.827863  0.171245 
 15.19 1.270650  145.135971  0.251436 
 15.19 1.287020  146.385420  0.261078 
 15.19 1.303400  134.567634  0.249448 
 15.19 1.319790   87.619375  0.166913 
 15.19 1.336170   43.515332  0.086078 
 15.19 1.352560   23.229653  0.047613 
 15.19 1.368940    8.113213  0.017210 
 15.19 1.385320    5.266395  0.011498 
 15.19 1.401700    4.193297  0.009390 
 15.19 1.418100    3.397068  0.007798 
 15.19 1.434490    6.305584  0.014862 
 15.19 1.450890   14.638969  0.035533 
 15.19 1.467290   21.212325  0.052917 
 15.19 1.483690   28.659271  0.073178 
 15.19 1.500090   28.030170  0.073452 
 15.19 1.516510   33.470623  0.089617 
 15.19 1.532930   35.953922  0.099189 
 15.19 1.549350   43.747110  0.123729 
 15.19 1.565780   59.828574  0.173675 
 15.19 1.582210   74.795337  0.222935 
 15.19 1.598650   83.059774  0.255292 
 15.19 1.615120   92.705966  0.293746 
 15.19 1.631540   77.699115  0.253362 
 15.19 1.647990   39.673577  0.132389 
 15.19 1.664460    6.573591  0.022930 
 15.19 1.680930    3.961123  0.014085 
 15.19 1.697390    4.301351  0.015904 
 15.19 1.713870    1.610305  0.006107 
 15.19 1.730340    1.086816  0.004279 
 15.19 1.746820    0.909008  0.003686 
 15.19 1.763300    2.645159  0.011217 
 15.19 1.779780    1.913610  0.008329 
 15.19 1.796260    0.789842  0.003551 
 15.19 1.812740    1.596463  0.007392 
 15.19 1.829220    5.124156  0.024426 
 15.19 1.845700    8.064924  0.040143 
 15.19 1.862180    6.366752  0.032645 
 15.19 1.878660   11.930098  0.062790 
 15.19 1.895140   19.353823  0.106930 
 15.19 1.911610   19.038144  0.106755 
 15.19 1.928080   12.594406  0.072767 
 15.19 1.944550    8.794375  0.052392 
 15.19 1.961010    7.037243  0.043606 
 15.19 1.977480    5.884354  0.037275 
 15.19 1.993940    5.698495  0.037255 
 15.19 2.010410    5.130425  0.034532 
 15.19 2.026890    4.346077  0.030086 
 15.19 2.043360    3.431588  0.024499 
 15.19 2.059840    2.478184  0.018320 
 15.19 2.076330    1.657482  0.012669 
 15.19 2.092830    1.061910  0.008406 
 15.19 2.109340    0.662637  0.005414 
 15.19 2.125870    0.387568  0.003243 
 15.19 2.142400    0.459486  0.003950 
 15.19 2.158950    0.427565  0.003753 
 15.19 2.175520    0.530566  0.004782 
 15.19 2.192110    0.130125  0.001229 
 15.19 2.208700    0.097825  0.000931 
 15.19 2.225320    0.204217  0.001999 
 15.19 2.241950    0.229229  0.002289 
 15.19 2.258580    0.226761  0.002347 
 15.19 2.275220   -0.006144 -0.000066 
 15.19 2.291850    0.095146  0.001043 
 15.19 2.308490   -0.022476 -0.000253 
 15.19 2.325120    0.130518  0.001506 
 15.19 2.341740    0.212939  0.002533 
 15.19 2.358360    0.155412  0.001897 
 15.19 2.374960    0.079435  0.000999 
 15.19 2.391560   -0.003604 -0.000046 
 15.19 2.408150   -0.048504 -0.000644 
 15.19 2.424740    0.005111  0.000069 
 15.19 2.441320    0.103784  0.001442 
 15.19 2.457890    0.099559  0.001410 
 15.19 2.474470    0.179710  0.002631 
 15.19 2.491040    0.510095  0.007607 
 15.19 2.507610    0.734281  0.011282 
 15.19 2.524180    0.999683  0.015580 
 15.19 2.540750    0.787072  0.012591 
 15.19 2.557330    0.951461  0.015649 
 15.19 2.573900    0.413361  0.006997 
 15.19 2.590480    0.117575  0.002029 
 15.19 2.607070    0.291695  0.005171 
 15.19 2.623670    0.367474  0.006587 
 15.19 2.640260    1.397901  0.025849 
 15.19 2.656860    4.258242  0.080299 
 15.19 2.673470    6.726330  0.129548 
 15.19 2.690100    8.218420  0.163298 
 15.19 2.706720    8.847073  0.178978 
 15.19 2.723340    9.621660  0.199084 
 15.19 2.740000    9.614126  0.203555 
 15.19 2.756630    9.227017  0.199719 
 15.19 2.773270    8.630361  0.191702 
 15.19 2.789930    7.517217  0.170900 
 15.19 2.806590    6.018910  0.139346 
 15.19 2.823260    4.046816  0.095660 
 15.19 2.839920    2.631540  0.063577 
 15.19 2.856590    1.831236  0.045237 
 15.19 2.873260    1.355002  0.034246 
 15.19 2.889940    1.270655  0.033024 
 15.19 2.906610    1.087548  0.028752 
 15.19 2.923300    0.875090  0.023585 
 15.19 2.939980    0.809052  0.022298 
 15.19 2.956660    0.706780  0.019904 
 15.19 2.973340    0.609566  0.017533 
 15.19 2.990010    0.579836  0.017002 
 15.19 3.006770    0.426701  0.012789 
 15.19 3.023430    0.444106  0.013613 
 15.19 3.040120    0.603020  0.018858 
 15.19 3.056840    0.497396  0.016030 
 15.19 3.073530    0.558708  0.018257 
 15.19 3.090230    0.548568  0.018274 
 15.19 3.106930    0.565227  0.019218 
 15.19 3.123610    0.532949  0.018490 
 15.19 3.140320    0.426541  0.015154 
 15.19 3.157020    0.461752  0.016666 
 15.19 3.173720    0.309790  0.011434 
 15.19 3.190410    0.224067  0.008431 
 15.19 3.207110    0.041117  0.001576 
 15.19 3.223800    0.073461  0.002873 
 15.19 3.240500    0.028457  0.001135 
 15.19 3.257180    0.029476  0.001200 
 15.19 3.273870    0.006084  0.000252 
 15.19 3.290560    0.031306  0.001325 
 15.19 3.307240   -0.002568 -0.000111 
 15.19 3.323910    0.045761  0.002032 
 15.19 3.340590    0.014058  0.000635 
 15.19 3.357260   -0.015240 -0.000697 
 15.19 3.373920    0.017804  0.000830 
 15.19 3.390580    0.025649  0.001220 
 15.19 3.407250   -0.000740 -0.000036 
 15.19 3.423910    0.068420  0.003394 
 15.19 3.440570    0.039631  0.001995 
 15.19 3.457230    0.019034  0.000974 
 15.19 3.473890   -0.031828 -0.001657 
 15.19 3.490540   -0.024412 -0.001295 
 15.19 3.507200   -0.026350 -0.001423 
 15.19 3.523840   -0.006434 -0.000354 
 15.19 3.540500    0.020840  0.001167 
 15.19 3.557160    0.061086  0.003486 
 15.19 3.573810   -0.002938 -0.000171 
 15.19 3.590470    0.011046  0.000654 
 15.19 3.607110    0.039109  0.002355 
 15.19 3.623770    0.030025  0.001839 
 15.19 3.640430   -0.000732 -0.000046 
 15.19 3.657090   -0.008134 -0.000516 
 15.19 3.673740   -0.008219 -0.000533 
 15.19 3.690400    0.042688  0.002814 
 15.19 3.707060    0.082553  0.005561 
 15.19 3.723730    0.072555  0.004999 
 15.19 3.740390    0.070862  0.004935 
 15.19 3.757050    0.061429  0.004390 
 15.19 3.773710    0.053510  0.003891 
 15.19 3.790380    0.051201  0.003751 
 15.19 3.807040   -0.018785 -0.001399 
 15.19 3.823710    0.058108  0.004396 
 15.19 3.840390    0.017099  0.001313 
 15.19 3.857060    0.053793  0.004195 
 15.19 3.873700    0.234564  0.018588 
 15.19 3.890410    0.088693  0.007160 
 15.19 3.907090    0.038166  0.003132 
 15.19 3.923780    0.058204  0.004851 
 15.19 3.940470    0.092157  0.007797 
 15.19 3.957170    0.083708  0.007203 
 15.19 3.973870    0.133636  0.011724 
 15.19 3.990570    0.294658  0.026249 
 15.19 4.007280    0.282469  0.025641 
 15.19 4.023980    0.267697  0.024704 
 15.19 4.040700    0.448666  0.042046 
 15.19 4.057430    0.337684  0.032153 
 15.19 4.074140    0.508577  0.049590 
 15.19 4.090880    0.395102  0.038850 
 15.19 4.107600    0.597373  0.059481 
 15.19 4.124330    0.575737  0.058165 
 15.19 4.141070    0.493509  0.050616 
 15.19 4.157810    0.465173  0.048494 
 15.19 4.174560    0.277318  0.029387 
 15.19 4.191300    0.208821  0.022471 
 15.19 4.208040    0.163542  0.017893 
 15.19 4.224780    0.155565  0.017338 
 15.19 4.241530    0.134188  0.015118 
 15.19 4.258270    0.171994  0.019650 
 15.19 4.275020    0.232648  0.027007 
 15.19 4.291770    0.339946  0.040030 
 15.19 4.308520    0.174080  0.020991 
 15.19 4.325260    0.084973  0.010573 
 15.19 4.342010    0.185117  0.023252 
 15.19 4.358760    0.356216  0.045481 
 15.19 4.375500    0.279502  0.036901 
 15.19 4.392240    0.216326  0.028986 
 15.19 4.408980    0.164341  0.022241 
 15.19 4.425730    0.173292  0.024112 
 15.19 4.442480    0.231619  0.032908 
 15.19 4.459220    0.273054  0.039052 
 15.19 4.475990    0.389315  0.056490 
 15.19 4.492740    0.407937  0.060773 
 15.19 4.509490    0.479518  0.072046 
 15.19 4.526250    0.692387  0.105169 
 15.19 4.543010    0.927734  0.144052 
 15.19 4.559790    1.107870  0.174852 
 15.19 4.576540    1.408790  0.224092 
 15.19 4.593320    2.133552  0.344185 
 15.19 4.610090    2.702929  0.445927 
 15.19 4.626870    3.361492  0.559369 
 15.19 4.643640    3.654719  0.614058 
 15.19 4.660440    4.104612  0.699333 
 15.19 4.677210    5.118242  0.892466 
 15.19 4.694010    5.424396  0.948496 
 15.19 4.710790    6.021156  1.062313 
 15.19 4.727590    5.348002  0.956783 
 15.19 4.744400    4.872325  0.883287 
 15.19 4.761210    4.135602  0.757894 
 15.19 4.778030    5.638409  1.046443 
 15.19 4.794860    6.486379  1.223404 
 15.19 4.811690    6.486274  1.239517 
 15.19 4.828520    6.798479  1.315490 
 15.19 4.845360    6.535874  1.276562 
 15.19 4.862220    5.437993  1.074662 
 15.19 4.879080    5.675067  1.138652 
 15.19 4.895940    6.611302  1.346600 
 15.19 4.912830    5.077270  1.044883 
 15.19 4.929720    6.082363  1.268151 
 15.19 4.946610    5.724047  1.211824 
 15.19 4.963510    5.106589  1.094864 
 15.19 4.980430    4.684530  1.016538 
 15.19 4.997340    5.557001  1.220011 
 15.19 5.014250    6.793645  1.513995 
 15.19 5.031170    5.371415  1.213193 
 15.19 5.048110    4.727188  1.079966 
 15.19 5.065030    7.174587  1.654202 
 15.19 5.081950    7.190168  1.681237 
 15.19 5.098890    5.496285  1.304101 
 15.19 5.115800    5.493437  1.321104 
 15.19 5.132420    5.361924  1.305354 
 76.96 0.350540  111.989129  0.094763 
 76.96 0.358950  111.910201  0.095291 
 76.96 0.366290  130.483517  0.096996 
 76.96 0.373220  128.304413  0.098639 
 76.96 0.379490  134.503113  0.103857 
 76.96 0.387900  128.801045  0.102676 
 76.96 0.395180  137.717403  0.102377 
 76.96 0.402520  229.064714  0.119395 
 76.96 0.409550  245.630460  0.121384 
 76.96 0.417310  264.062357  0.125942 
 76.96 0.424360  257.158121  0.125984 
 76.96 0.431840  253.706795  0.130114 
 76.96 0.439190  287.014417  0.132285 
 76.96 0.446520  327.209859  0.138723 
 76.96 0.453720  353.158090  0.144655 
 76.96 0.461630  356.180395  0.144743 
 76.96 0.468410  351.151662  0.145804 
 76.96 0.476220  368.270446  0.150571 
 76.96 0.486290  362.505470  0.157072 
 76.96 0.489670  357.001995  0.155140 
 76.96 0.497770  385.363702  0.165914 
 76.96 0.506280  376.452940  0.165238 
 76.96 0.512220  377.144020  0.168837 
 76.96 0.519630  359.298794  0.169033 
 76.96 0.527660  373.977611  0.169490 
 76.96 0.534160  385.904750  0.172359 
 76.96 0.541560  371.238008  0.167965 
 76.96 0.549540  386.102476  0.173268 
 76.96 0.556140  379.846945  0.173763 
 76.96 0.563530  381.326876  0.176016 
 76.96 0.571310  381.448755  0.175503 
 76.96 0.578100  379.372540  0.174735 
 76.96 0.585480  379.801278  0.177548 
 76.96 0.593120  366.645117  0.174701 
 76.96 0.599380  357.341151  0.171275 
 76.96 0.607570  368.962695  0.178366 
 76.96 0.615050  324.996769  0.162654 
 76.96 0.622070  303.120519  0.152087 
 76.96 0.629400  344.778087  0.175100 
 76.96 0.637040  344.300780  0.177521 
 76.96 0.644080  324.332931  0.170353 
 76.96 0.651420  315.314554  0.170031 
 76.96 0.659100  307.420208  0.171152 
 76.96 0.666090  312.324373  0.171618 
 76.96 0.673420  318.281483  0.177931 
 76.96 0.681020  316.729450  0.180718 
 76.96 0.688030  307.862765  0.178872 
 76.96 0.695350  295.820029  0.175159 
 76.96 0.702880  266.239712  0.161005 
 76.96 0.710000  269.882555  0.165058 
 76.96 0.717330  243.637934  0.153025 
 76.96 0.724840  151.095314  0.095577 
 76.96 0.731980  151.637967  0.097628 
 76.96 0.739300  232.887766  0.153527 
 76.96 0.746760  259.764827  0.173007 
 76.96 0.753960  251.205918  0.169490 
 76.96 0.761280  232.034022  0.159534 
 76.96 0.768740  222.092214  0.156093 
 76.96 0.775950  214.056762  0.152038 
 76.96 0.783280  181.582002  0.130298 
 76.96 0.790720  162.887781  0.119195 
 76.96 0.797930  161.959428  0.120406 
 76.96 0.805220  179.822608  0.135963 
 76.96 0.812620  196.643286  0.150403 
 76.96 0.819890  202.306474  0.158858 
 76.96 0.827210  209.016523  0.165257 
 76.96 0.834630  197.881661  0.160056 
 76.96 0.841900  165.536822  0.135771 
 76.96 0.849220  175.479496  0.149707 
 76.96 0.856630  135.704587  0.118623 
 76.96 0.863910   75.072962  0.065793 
 76.96 0.871220  108.596564  0.095467 
 76.96 0.878630  108.147388  0.095224 
 76.96 0.885890   19.445187  0.017401 
 76.96 0.893210   39.786019  0.035334 
 76.96 0.909667   54.422734  0.049939 
 76.96 0.926122  129.742759  0.123064 
 76.96 0.942572  144.196152  0.141767 
 76.96 0.959010  140.473869  0.143204 
 76.96 0.975452   83.584842  0.088358 
 76.96 0.991881   41.788656  0.045789 
 76.96 1.008310   29.495786  0.033432 
 76.96 1.024730   32.245646  0.038033 
 76.96 1.041150   57.079817  0.069903 
 76.96 1.057560   94.602515  0.120553 
 76.96 1.073950  106.759116  0.141177 
 76.96 1.090360   98.572684  0.134383 
 76.96 1.106760   78.395354  0.110504 
 76.96 1.123170   38.563069  0.055767 
 76.96 1.139560    6.166664  0.009194 
 76.96 1.155950    4.736188  0.007268 
 76.96 1.172340    1.846876  0.002922 
 76.96 1.188720    4.005831  0.006519 
 76.96 1.205110    9.592934  0.016021 
 76.96 1.221500   28.356300  0.048741 
 76.96 1.237880   36.359127  0.064195 
 76.96 1.254270   54.354127  0.099189 
 76.96 1.270650   59.620399  0.111858 
 76.96 1.287020   60.243010  0.116587 
 76.96 1.303400   45.946677  0.091976 
 76.96 1.319790   26.801205  0.055588 
 76.96 1.336170   13.643892  0.029318 
 76.96 1.352560    5.235933  0.011669 
 76.96 1.368940    2.562942  0.005893 
 76.96 1.385320    2.031282  0.004792 
 76.96 1.401700    1.734776  0.004192 
 76.96 1.418100    1.787144  0.004436 
 76.96 1.434490    4.409565  0.011267 
 76.96 1.450890    8.579488  0.022507 
 76.96 1.467290   11.676898  0.031441 
 76.96 1.483690   12.654724  0.034929 
 76.96 1.500090   16.574321  0.046870 
 76.96 1.516510   17.502917  0.051047 
 76.96 1.532930   19.999470  0.059515 
 76.96 1.549350   24.613216  0.075258 
 76.96 1.565780   30.948489  0.097271 
 76.96 1.582210   34.184912  0.110339 
 76.96 1.598650   37.410104  0.124965 
 76.96 1.615120   36.643559  0.125122 
 76.96 1.631540   24.466051  0.086385 
 76.96 1.647990   11.161539  0.040756 
 76.96 1.664460    2.373657  0.008894 
 76.96 1.680930    1.897652  0.007330 
 76.96 1.697390    1.419953  0.005697 
 76.96 1.713870    0.361636  0.001493 
 76.96 1.730340    0.394791  0.001680 
 76.96 1.746820    0.991422  0.004429 
 76.96 1.763300    1.191563  0.005448 
 76.96 1.779780    0.423605  0.001999 
 76.96 1.796260    0.330616  0.001611 
 76.96 1.812740    1.667433  0.008359 
 76.96 1.829220    3.329657  0.017513 
 76.96 1.845700    3.113349  0.016705 
 76.96 1.862180    3.973246  0.022056 
 76.96 1.878660    7.684903  0.044065 
 76.96 1.895140    9.263496  0.054604 
 76.96 1.911610    7.531026  0.045894 
 76.96 1.928080    4.851607  0.030384 
 76.96 1.944550    4.300265  0.027787 
 76.96 1.961010    3.366619  0.022693 
 76.96 1.977480    3.202192  0.021997 
 76.96 1.993940    3.034880  0.021500 
 76.96 2.010410    2.562538  0.018685 
 76.96 2.026890    2.021503  0.015139 
 76.96 2.043360    1.606762  0.012483 
 76.96 2.059840    1.041130  0.008335 
 76.96 2.076330    0.671273  0.005594 
 76.96 2.092830    0.314563  0.002698 
 76.96 2.109340    0.157370  0.001391 
 76.96 2.125870    0.162869  0.001473 
 76.96 2.142400    0.220774  0.002043 
 76.96 2.158950    0.147991  0.001401 
 76.96 2.175520    0.145816  0.001455 
 76.96 2.192110    0.130518  0.001310 
 76.96 2.208700    0.139110  0.001427 
 76.96 2.225320    0.092991  0.000983 
 76.96 2.241950    0.000880  0.000010 
 76.96 2.258580    0.063536  0.000712 
 76.96 2.275220    0.004564  0.000053 
 76.96 2.291850    0.005892  0.000070 
 76.96 2.308490    0.038845  0.000473 
 76.96 2.325120    0.093876  0.001170 
 76.96 2.341740    0.046719  0.000602 
 76.96 2.358360    0.058681  0.000774 
 76.96 2.374960    0.032438  0.000439 
 76.96 2.391560    0.071522  0.000998 
 76.96 2.408150    0.063768  0.000905 
 76.96 2.424740    0.023238  0.000340 
 76.96 2.441320    0.018805  0.000280 
 76.96 2.457890    0.071017  0.001092 
 76.96 2.474470    0.186613  0.002931 
 76.96 2.491040    0.319851  0.005179 
 76.96 2.507610    0.490640  0.008065 
 76.96 2.524180    0.461980  0.007794 
 76.96 2.540750    0.466584  0.008053 
 76.96 2.557330    0.318376  0.005679 
 76.96 2.573900    0.107656  0.001962 
 76.96 2.590480    0.122711  0.002286 
 76.96 2.607070    0.116106  0.002202 
 76.96 2.623670    0.386375  0.007464 
 76.96 2.640260    1.328677  0.026639 
 76.96 2.656860    2.728098  0.055294 
 76.96 2.673470    3.535408  0.073948 
 76.96 2.690100    4.016986  0.085760 
 76.96 2.706720    4.219421  0.092013 
 76.96 2.723340    4.391565  0.097991 
 76.96 2.740000    4.310327  0.098364 
 76.96 2.756630    4.163189  0.097171 
 76.96 2.773270    3.750123  0.090099 
 76.96 2.789930    3.195927  0.078083 
 76.96 2.806590    2.381841  0.059327 
 76.96 2.823260    1.648192  0.041972 
 76.96 2.839920    1.119044  0.029129 
 76.96 2.856590    0.838939  0.022355 
 76.96 2.873260    0.740994  0.020224 
 76.96 2.889940    0.676089  0.018904 
 76.96 2.906610    0.534722  0.015196 
 76.96 2.923300    0.442154  0.012837 
 76.96 2.939980    0.408485  0.012136 
 76.96 2.956660    0.349317  0.010597 
 76.96 2.973340    0.271710  0.008403 
 76.96 2.990010    0.313398  0.009898 
 76.96 3.006770    0.213185  0.006892 
 76.96 3.023430    0.285929  0.009425 
 76.96 3.040120    0.278028  0.009403 
 76.96 3.056840    0.289882  0.010031 
 76.96 3.073530    0.273990  0.009627 
 76.96 3.090230    0.292283  0.010477 
 76.96 3.106930    0.271465  0.009932 
 76.96 3.123610    0.244361  0.009156 
 76.96 3.140320    0.221610  0.008441 
 76.96 3.157020    0.165360  0.006432 
 76.96 3.173720    0.150203  0.005960 
 76.96 3.190410    0.037279  0.001508 
 76.96 3.207110    0.010055  0.000415 
 76.96 3.223800    0.014847  0.000625 
 76.96 3.240500    0.016743  0.000719 
 76.96 3.257180    0.021201  0.000928 
 76.96 3.273870    0.020343  0.000908 
 76.96 3.290560    0.023878  0.001089 
 76.96 3.307240    0.022389  0.001052 
 76.96 3.323910    0.027239  0.001296 
 76.96 3.340590    0.011967  0.000578 
 76.96 3.357260    0.024270  0.001193 
 76.96 3.373920    0.010181  0.000511 
 76.96 3.390580    0.026314  0.001345 
 76.96 3.407250    0.002436  0.000127 
 76.96 3.423910    0.023035  0.001225 
 76.96 3.440570    0.005209  0.000281 
 76.96 3.457230    0.004856  0.000267 
 76.96 3.473890    0.006975  0.000390 
 76.96 3.490540    0.008279  0.000472 
 76.96 3.507200   -0.003571 -0.000207 
 76.96 3.523840    0.023487  0.001388 
 76.96 3.540500    0.009763  0.000588 
 76.96 3.557160   -0.014680 -0.000900 
 76.96 3.573810   -0.005230 -0.000327 
 76.96 3.590470    0.028899  0.001838 
 76.96 3.607110    0.006287  0.000407 
 76.96 3.623770    0.022129  0.001454 
 76.96 3.640430   -0.004470 -0.000299 
 76.96 3.657090   -0.007030 -0.000480 
 76.96 3.673740    0.005330  0.000371 
 76.96 3.690400    0.019819  0.001408 
 76.96 3.707060    0.042263  0.003070 
 76.96 3.723730    0.028930  0.002133 
 76.96 3.740390    0.014582  0.001093 
 76.96 3.757050    0.029146  0.002248 
 76.96 3.773710    0.017552  0.001360 
 76.96 3.790380    0.020961  0.001649 
 76.96 3.807040   -0.003257 -0.000260 
 76.96 3.823710    0.025249  0.002049 
 76.96 3.840390    0.023784  0.001959 
 76.96 3.857060    0.002701  0.000226 
 76.96 3.873700    0.144873  0.012347 
 76.96 3.890410    0.029003  0.002513 
 76.96 3.907090    0.036935  0.003253 
 76.96 3.923780    0.044189  0.003949 
 76.96 3.940470    0.045725  0.004153 
 76.96 3.957170    0.071871  0.006652 
 76.96 3.973870    0.074476  0.007011 
 76.96 3.990570    0.085237  0.008160 
 76.96 4.007280    0.133456  0.013016 
 76.96 4.023980    0.121460  0.012025 
 76.96 4.040700    0.161038  0.016177 
 76.96 4.057430    0.149466  0.015368 
 76.96 4.074140    0.189200  0.019711 
 76.96 4.090880    0.185779  0.019545 
 76.96 4.107600    0.241434  0.025775 
 76.96 4.124330    0.184736  0.020019 
 76.96 4.141070    0.191923  0.021122 
 76.96 4.157810    0.133009  0.014891 
 76.96 4.174560    0.120747  0.013721 
 76.96 4.191300    0.060656  0.007007 
 76.96 4.208040    0.063949  0.007523 
 76.96 4.224780    0.079799  0.009517 
 76.96 4.241530    0.059472  0.007175 
 76.96 4.258270    0.080059  0.009820 
 76.96 4.275020    0.106806  0.013289 
 76.96 4.291770    0.142414  0.018043 
 76.96 4.308520    0.035809  0.004695 
 76.96 4.325260    0.066651  0.008862 
 76.96 4.342010    0.120344  0.016199 
 76.96 4.358760    0.118747  0.016456 
 76.96 4.375500    0.074274  0.010538 
 76.96 4.392240    0.069007  0.009874 
 76.96 4.408980    0.091550  0.013367 
 76.96 4.425730    0.098788  0.014855 
 76.96 4.442480    0.120866  0.018304 
 76.96 4.459220    0.136803  0.020944 
 76.96 4.475990    0.196108  0.030774 
 76.96 4.492740    0.237322  0.037794 
 76.96 4.509490    0.296928  0.047668 
 76.96 4.526250    0.430510  0.070347 
 76.96 4.543010    0.596591  0.099688 
 76.96 4.559790    0.645292  0.108693 
 76.96 4.576540    1.122042  0.191133 
 76.96 4.593320    1.485497  0.258284 
 76.96 4.610090    2.038183  0.359438 
 76.96 4.626870    2.295044  0.408118 
 76.96 4.643640    2.598204  0.466930 
 76.96 4.660440    3.097552  0.570512 
 76.96 4.677210    3.686032  0.683334 
 76.96 4.694010    3.720667  0.694779 
 76.96 4.710790    3.780301  0.714264 
 76.96 4.727590    3.520727  0.675614 
 76.96 4.744400    2.737438  0.530493 
 76.96 4.761210    3.465301  0.679964 
 76.96 4.778030    4.404222  0.876750 
 76.96 4.794860    4.333222  0.875891 
 76.96 4.811690    4.950512  1.013208 
 76.96 4.828520    4.401762  0.909804 
 76.96 4.845360    4.236404  0.885074 
 76.96 4.862220    3.866205  0.819499 
 76.96 4.879080    4.442936  0.956451 
 76.96 4.895940    4.079532  0.888279 
 76.96 4.912830    3.652139  0.804377 
 76.96 4.929720    4.311337  0.964747 
 76.96 4.946610    3.577016  0.810691 
 76.96 4.963510    3.330895  0.764460 
 76.96 4.980430    3.809938  0.884380 
 76.96 4.997340    4.480061  1.054811 
 76.96 5.014250    4.342441  1.036672 
 76.96 5.031170    3.120441  0.754229 
 76.96 5.048110    4.497863  1.097492 
 76.96 5.065030    5.165892  1.276681 
 76.96 5.081950    4.623962  1.158835 
 76.96 5.098890    3.549777  0.902452 
 76.96 5.115800    4.144011  1.067095 
 76.96 5.132420    4.199889  1.096176 
 89.26 0.350540   85.809850  0.072611 
 89.26 0.358950   86.508390  0.073662 
 89.26 0.366290  104.090287  0.077376 
 89.26 0.373220  101.414101  0.077966 
 89.26 0.379490  107.988548  0.083383 
 89.26 0.387900  101.730438  0.081096 
 89.26 0.395180  107.429844  0.079862 
 89.26 0.402520  174.887206  0.091156 
 89.26 0.409550  185.240970  0.091541 
 89.26 0.417310  200.451574  0.095603 
 89.26 0.424360  195.432225  0.095744 
 89.26 0.431840  193.355729  0.099162 
 89.26 0.439190  220.819794  0.101776 
 89.26 0.446520  251.112373  0.106461 
 89.26 0.453720  271.056349  0.111026 
 89.26 0.461630  276.400792  0.112323 
 89.26 0.468410  271.529100  0.112743 
 89.26 0.476220  283.248450  0.115809 
 89.26 0.486290  278.667066  0.120745 
 89.26 0.489670  274.294927  0.119199 
 89.26 0.497770  295.730531  0.127324 
 89.26 0.506280  289.033867  0.126867 
 89.26 0.512220  289.270424  0.129498 
 89.26 0.519630  274.372910  0.129080 
 89.26 0.527660  286.588816  0.129884 
 89.26 0.534160  295.586503  0.132019 
 89.26 0.541560  285.650068  0.129241 
 89.26 0.549540  296.821261  0.133202 
 89.26 0.556140  292.110350  0.133628 
 89.26 0.563530  291.523299  0.134564 
 89.26 0.571310  292.420879  0.134542 
 89.26 0.578100  289.909578  0.133529 
 89.26 0.585480  291.175756  0.136118 
 89.26 0.593120  281.954362  0.134347 
 89.26 0.599380  274.342476  0.131493 
 89.26 0.607570  282.459004  0.136548 
 89.26 0.615050  250.127078  0.125183 
 89.26 0.622070  233.821587  0.117317 
 89.26 0.629400  264.445286  0.134302 
 89.26 0.637040  264.091345  0.136165 
 89.26 0.644080  250.303869  0.131470 
 89.26 0.651420  243.236058  0.131163 
 89.26 0.659100  236.123662  0.131459 
 89.26 0.666090  239.326052  0.131507 
 89.26 0.673420  243.160455  0.135936 
 89.26 0.681020  241.263932  0.137659 
 89.26 0.688030  235.019051  0.136549 
 89.26 0.695350  227.402509  0.134648 
 89.26 0.702880  204.701361  0.123790 
 89.26 0.710000  207.984920  0.127202 
 89.26 0.717330  188.169108  0.118186 
 89.26 0.724840  118.290890  0.074826 
 89.26 0.731980  118.305729  0.076168 
 89.26 0.739300  179.412593  0.118274 
 89.26 0.746760  199.728074  0.133022 
 89.26 0.753960  193.894136  0.130821 
 89.26 0.761280  179.869842  0.123669 
 89.26 0.768740  172.509485  0.121245 
 89.26 0.775950  166.390674  0.118182 
 89.26 0.783280  142.174674  0.102021 
 89.26 0.790720  129.928565  0.095076 
 89.26 0.797930  125.908242  0.093604 
 89.26 0.805220  140.455843  0.106198 
 89.26 0.812620  152.944571  0.116980 
 89.26 0.819890  156.701388  0.123048 
 89.26 0.827210  161.799874  0.127926 
 89.26 0.834630  154.224238  0.124744 
 89.26 0.841900  129.317964  0.106065 
 89.26 0.849220  136.898799  0.116793 
 89.26 0.856630  106.585565  0.093169 
 89.26 0.863910   60.422976  0.052954 
 89.26 0.871220   86.504867  0.076047 
 89.26 0.878630   86.485104  0.076150 
 89.26 0.885890   16.332650  0.014616 
 89.26 0.893210   32.516268  0.028878 
 89.26 0.909667   50.204199  0.046068 
 89.26 0.926122  112.288132  0.106508 
 89.26 0.942572  124.047130  0.121957 
 89.26 0.959010  118.974308  0.121287 
 89.26 0.975452   70.050568  0.074051 
 89.26 0.991881   35.732022  0.039152 
 89.26 1.008310   25.976926  0.029444 
 89.26 1.024730   29.491348  0.034784 
 89.26 1.041150   53.366147  0.065355 
 89.26 1.057560   84.011732  0.107057 
 89.26 1.073950   92.491967  0.122310 
 89.26 1.090360   86.135207  0.117427 
 89.26 1.106760   67.871723  0.095670 
 89.26 1.123170   32.617829  0.047170 
 89.26 1.139560    5.098667  0.007602 
 89.26 1.155950    3.929606  0.006030 
 89.26 1.172340    1.371928  0.002170 
 89.26 1.188720    3.437842  0.005595 
 89.26 1.205110    8.961532  0.014967 
 89.26 1.221500   27.395989  0.047091 
 89.26 1.237880   33.771858  0.059627 
 89.26 1.254270   49.296390  0.089959 
 89.26 1.270650   53.596084  0.100556 
 89.26 1.287020   54.327063  0.105138 
 89.26 1.303400   42.693938  0.085465 
 89.26 1.319790   24.670458  0.051169 
 89.26 1.336170   12.328737  0.026492 
 89.26 1.352560    4.432188  0.009877 
 89.26 1.368940    2.090205  0.004806 
 89.26 1.385320    1.696160  0.004001 
 89.26 1.401700    1.384990  0.003347 
 89.26 1.418100    1.530632  0.003799 
 89.26 1.434490    3.943158  0.010075 
 89.26 1.450890    8.034832  0.021078 
 89.26 1.467290   11.130871  0.029970 
 89.26 1.483690   12.106608  0.033416 
 89.26 1.500090   16.700239  0.047226 
 89.26 1.516510   17.633430  0.051428 
 89.26 1.532930   20.090950  0.059788 
 89.26 1.549350   24.427586  0.074690 
 89.26 1.565780   29.588110  0.092996 
 89.26 1.582210   31.683586  0.102266 
 89.26 1.598650   34.177696  0.114167 
 89.26 1.615120   32.660803  0.111523 
 89.26 1.631540   21.214118  0.074903 
 89.26 1.647990   10.011970  0.036559 
 89.26 1.664460    2.267250  0.008495 
 89.26 1.680930    1.805037  0.006972 
 89.26 1.697390    1.227528  0.004925 
 89.26 1.713870    0.141874  0.000586 
 89.26 1.730340    0.209541  0.000892 
 89.26 1.746820    0.990529  0.004425 
 89.26 1.763300    1.074215  0.004912 
 89.26 1.779780    0.345054  0.001629 
 89.26 1.796260    0.521820  0.002543 
 89.26 1.812740    1.660963  0.008327 
 89.26 1.829220    3.269341  0.017195 
 89.26 1.845700    3.089776  0.016579 
 89.26 1.862180    3.897676  0.021636 
 89.26 1.878660    7.542617  0.043249 
 89.26 1.895140    8.884320  0.052369 
 89.26 1.911610    7.268883  0.044297 
 89.26 1.928080    4.819254  0.030182 
 89.26 1.944550    4.529659  0.029269 
 89.26 1.961010    3.407985  0.022971 
 89.26 1.977480    3.348181  0.023000 
 89.26 1.993940    3.066991  0.021727 
 89.26 2.010410    2.628999  0.019170 
 89.26 2.026890    2.047820  0.015336 
 89.26 2.043360    1.607931  0.012492 
 89.26 2.059840    1.094882  0.008765 
 89.26 2.076330    0.471277  0.003927 
 89.26 2.092830    0.264876  0.002272 
 89.26 2.109340    0.203766  0.001801 
 89.26 2.125870    0.103451  0.000936 
 89.26 2.142400    0.280531  0.002595 
 89.26 2.158950    0.163347  0.001547 
 89.26 2.175520    0.135899  0.001356 
 89.26 2.192110    0.037542  0.000377 
 89.26 2.208700    0.101480  0.001041 
 89.26 2.225320    0.022775  0.000241 
 89.26 2.241950    0.105794  0.001155 
 89.26 2.258580   -0.017569 -0.000197 
 89.26 2.275220    0.031646  0.000366 
 89.26 2.291850    0.038939  0.000462 
 89.26 2.308490    0.020919  0.000255 
 89.26 2.325120   -0.009211 -0.000115 
 89.26 2.341740   -0.029675 -0.000382 
 89.26 2.358360    0.039955  0.000527 
 89.26 2.374960    0.003491  0.000047 
 89.26 2.391560    0.058112  0.000811 
 89.26 2.408150    0.062605  0.000889 
 89.26 2.424740    0.005825  0.000085 
 89.26 2.441320    0.025206  0.000376 
 89.26 2.457890    0.045216  0.000696 
 89.26 2.474470    0.179167  0.002814 
 89.26 2.491040    0.348061  0.005635 
 89.26 2.507610    0.521466  0.008571 
 89.26 2.524180    0.471527  0.007955 
 89.26 2.540750    0.470260  0.008116 
 89.26 2.557330    0.296541  0.005290 
 89.26 2.573900    0.087308  0.001591 
 89.26 2.590480    0.064529  0.001202 
 89.26 2.607070    0.082223  0.001560 
 89.26 2.623670    0.390076  0.007536 
 89.26 2.640260    1.361708  0.027301 
 89.26 2.656860    2.653100  0.053774 
 89.26 2.673470    3.383833  0.070778 
 89.26 2.690100    3.804209  0.081217 
 89.26 2.706720    4.003631  0.087307 
 89.26 2.723340    4.096152  0.091399 
 89.26 2.740000    4.113591  0.093874 
 89.26 2.756630    4.007742  0.093543 
 89.26 2.773270    3.642573  0.087515 
 89.26 2.789930    3.250054  0.079406 
 89.26 2.806590    2.455135  0.061152 
 89.26 2.823260    1.774660  0.045192 
 89.26 2.839920    1.230254  0.032024 
 89.26 2.856590    0.980221  0.026119 
 89.26 2.873260    0.875446  0.023894 
 89.26 2.889940    0.789471  0.022074 
 89.26 2.906610    0.632598  0.017977 
 89.26 2.923300    0.529125  0.015361 
 89.26 2.939980    0.502367  0.014925 
 89.26 2.956660    0.387635  0.011760 
 89.26 2.973340    0.284045  0.008784 
 89.26 2.990010    0.272398  0.008604 
 89.26 3.006770    0.225513  0.007290 
 89.26 3.023430    0.314100  0.010353 
 89.26 3.040120    0.308979  0.010450 
 89.26 3.056840    0.322758  0.011168 
 89.26 3.073530    0.345835  0.012151 
 89.26 3.090230    0.316645  0.011350 
 89.26 3.106930    0.295787  0.010822 
 89.26 3.123610    0.277837  0.010410 
 89.26 3.140320    0.285889  0.010889 
 89.26 3.157020    0.200174  0.007787 
 89.26 3.173720    0.149471  0.005931 
 89.26 3.190410    0.035555  0.001438 
 89.26 3.207110    0.046040  0.001899 
 89.26 3.223800   -0.003367 -0.000142 
 89.26 3.240500   -0.014452 -0.000620 
 89.26 3.257180   -0.018470 -0.000809 
 89.26 3.273870    0.015860  0.000708 
 89.26 3.290560    0.004342  0.000198 
 89.26 3.307240    0.001951  0.000092 
 89.26 3.323910    0.011385  0.000542 
 89.26 3.340590   -0.016798 -0.000812 
 89.26 3.357260   -0.010895 -0.000536 
 89.26 3.373920    0.020764  0.001041 
 89.26 3.390580    0.008231  0.000421 
 89.26 3.407250   -0.010477 -0.000548 
 89.26 3.423910   -0.010164 -0.000541 
 89.26 3.440570   -0.007287 -0.000394 
 89.26 3.457230   -0.007964 -0.000437 
 89.26 3.473890    0.028621  0.001602 
 89.26 3.490540    0.006193  0.000353 
 89.26 3.507200    0.021546  0.001251 
 89.26 3.523840    0.019516  0.001153 
 89.26 3.540500    0.017854  0.001075 
 89.26 3.557160    0.022071  0.001353 
 89.26 3.573810   -0.024904 -0.001556 
 89.26 3.590470   -0.021583 -0.001372 
 89.26 3.607110    0.013832  0.000895 
 89.26 3.623770    0.006217  0.000409 
 89.26 3.640430   -0.002752 -0.000184 
 89.26 3.657090   -0.000071 -0.000005 
 89.26 3.673740    0.028716  0.001998 
 89.26 3.690400    0.016747  0.001190 
 89.26 3.707060    0.036760  0.002670 
 89.26 3.723730    0.003999  0.000295 
 89.26 3.740390    0.045585  0.003418 
 89.26 3.757050    0.013329  0.001028 
 89.26 3.773710    0.020362  0.001577 
 89.26 3.790380    0.006377  0.000501 
 89.26 3.807040    0.019275  0.001541 
 89.26 3.823710    0.008344  0.000677 
 89.26 3.840390    0.009973  0.000821 
 89.26 3.857060   -0.006510 -0.000545 
 89.26 3.873700    0.110123  0.009386 
 89.26 3.890410   -0.013951 -0.001209 
 89.26 3.907090    0.047572  0.004190 
 89.26 3.923780    0.031267  0.002794 
 89.26 3.940470    0.070483  0.006402 
 89.26 3.957170    0.061461  0.005689 
 89.26 3.973870    0.107727  0.010141 
 89.26 3.990570    0.117691  0.011267 
 89.26 4.007280    0.120234  0.011726 
 89.26 4.023980    0.127171  0.012590 
 89.26 4.040700    0.205225  0.020616 
 89.26 4.057430    0.154202  0.015855 
 89.26 4.074140    0.240069  0.025010 
 89.26 4.090880    0.216491  0.022776 
 89.26 4.107600    0.255738  0.027302 
 89.26 4.124330    0.192504  0.020861 
 89.26 4.141070    0.223370  0.024582 
 89.26 4.157810    0.148722  0.016650 
 89.26 4.174560    0.133061  0.015120 
 89.26 4.191300    0.055985  0.006468 
 89.26 4.208040    0.066905  0.007871 
 89.26 4.224780    0.044167  0.005268 
 89.26 4.241530    0.071456  0.008621 
 89.26 4.258270    0.064471  0.007908 
 89.26 4.275020    0.128420  0.015978 
 89.26 4.291770    0.118170  0.014971 
 89.26 4.308520    0.049739  0.006522 
 89.26 4.325260    0.075354  0.010020 
 89.26 4.342010    0.168175  0.022637 
 89.26 4.358760    0.107267  0.014865 
 89.26 4.375500    0.079065  0.011218 
 89.26 4.392240    0.064650  0.009251 
 89.26 4.408980    0.110883  0.016189 
 89.26 4.425730    0.108640  0.016336 
 89.26 4.442480    0.134309  0.020340 
 89.26 4.459220    0.139914  0.021421 
 89.26 4.475990    0.189047  0.029666 
 89.26 4.492740    0.204319  0.032538 
 89.26 4.509490    0.283355  0.045489 
 89.26 4.526250    0.456082  0.074525 
 89.26 4.543010    0.612350  0.102322 
 89.26 4.559790    0.645411  0.108713 
 89.26 4.576540    1.167899  0.198944 
 89.26 4.593320    1.501956  0.261145 
 89.26 4.610090    2.053947  0.362218 
 89.26 4.626870    2.254763  0.400955 
 89.26 4.643640    2.614296  0.469822 
 89.26 4.660440    3.135275  0.577460 
 89.26 4.677210    3.665497  0.679527 
 89.26 4.694010    3.747628  0.699814 
 89.26 4.710790    3.776305  0.713509 
 89.26 4.727590    3.503879  0.672381 
 89.26 4.744400    2.728498  0.528760 
 89.26 4.761210    3.531949  0.693042 
 89.26 4.778030    4.420804  0.880051 
 89.26 4.794860    4.371851  0.883699 
 89.26 4.811690    4.916692  1.006286 
 89.26 4.828520    4.380816  0.905474 
 89.26 4.845360    4.210523  0.879667 
 89.26 4.862220    3.862646  0.818745 
 89.26 4.879080    4.411469  0.949677 
 89.26 4.895940    4.034846  0.878549 
 89.26 4.912830    3.712780  0.817733 
 89.26 4.929720    4.244099  0.949701 
 89.26 4.946610    3.554137  0.805505 
 89.26 4.963510    3.314865  0.760781 
 89.26 4.980430    3.827782  0.888522 
 89.26 4.997340    4.503296  1.060281 
 89.26 5.014250    4.290485  1.024268 
 89.26 5.031170    3.111221  0.752000 
 89.26 5.048110    4.561342  1.112981 
 89.26 5.065030    5.107000  1.262126 
 89.26 5.081950    4.581143  1.148104 
 89.26 5.098890    3.540281  0.900037 
 89.26 5.115800    4.102249  1.056341 
 89.26 5.132420    4.172992  1.089155 
107.27 0.350540   62.605639  0.052976 
107.27 0.358950   63.003386  0.053647 
107.27 0.366290   75.666288  0.056247 
107.27 0.373220   72.992120  0.056116 
107.27 0.379490   76.498564  0.059068 
107.27 0.387900   72.516248  0.057808 
107.27 0.395180   76.171737  0.056625 
107.27 0.402520  123.447460  0.064344 
107.27 0.409550  128.439838  0.063471 
107.27 0.417310  137.424473  0.065543 
107.27 0.424360  136.949718  0.067093 
107.27 0.431840  134.999938  0.069235 
107.27 0.439190  153.581600  0.070786 
107.27 0.446520  170.142836  0.072133 
107.27 0.453720  184.688552  0.075649 
107.27 0.461630  188.264781  0.076506 
107.27 0.468410  182.339717  0.075710 
107.27 0.476220  189.952627  0.077664 
107.27 0.486290  188.466206  0.081661 
107.27 0.489670  183.616375  0.079793 
107.27 0.497770  198.055827  0.085271 
107.27 0.506280  191.229323  0.083937 
107.27 0.512220  191.941598  0.085927 
107.27 0.519630  182.360436  0.085792 
107.27 0.527660  189.364955  0.085822 
107.27 0.534160  195.361517  0.087255 
107.27 0.541560  189.000425  0.085513 
107.27 0.549540  196.338523  0.088109 
107.27 0.556140  192.690904  0.088148 
107.27 0.563530  191.610641  0.088445 
107.27 0.571310  192.534506  0.088584 
107.27 0.578100  190.772716  0.087868 
107.27 0.585480  191.331281  0.089443 
107.27 0.593120  186.002642  0.088627 
107.27 0.599380  179.197435  0.085890 
107.27 0.607570  184.844680  0.089359 
107.27 0.615050  165.449329  0.082804 
107.27 0.622070  156.387970  0.078466 
107.27 0.629400  174.406647  0.088575 
107.27 0.637040  173.568190  0.089492 
107.27 0.644080  167.026274  0.087729 
107.27 0.651420  162.210350  0.087471 
107.27 0.659100  156.719353  0.087251 
107.27 0.666090  158.847826  0.087285 
107.27 0.673420  160.294905  0.089611 
107.27 0.681020  159.362201  0.090928 
107.27 0.688030  155.005820  0.090061 
107.27 0.695350  150.351274  0.089025 
107.27 0.702880  136.987878  0.082842 
107.27 0.710000  139.125693  0.085088 
107.27 0.717330  126.852708  0.079674 
107.27 0.724840   82.396597  0.052121 
107.27 0.731980   81.793468  0.052661 
107.27 0.739300  119.392236  0.078707 
107.27 0.746760  133.375121  0.088830 
107.27 0.753960  129.610615  0.087449 
107.27 0.761280  121.940728  0.083840 
107.27 0.768740  118.322342  0.083161 
107.27 0.775950  112.579021  0.079961 
107.27 0.783280   98.715003  0.070835 
107.27 0.790720   92.724743  0.067852 
107.27 0.797930   87.872683  0.065327 
107.27 0.805220   96.364895  0.072861 
107.27 0.812620  103.550079  0.079201 
107.27 0.819890  106.252349  0.083433 
107.27 0.827210  108.745795  0.085979 
107.27 0.834630  104.055930  0.084165 
107.27 0.841900   87.520260  0.071783 
107.27 0.849220   93.074143  0.079404 
107.27 0.856630   73.519032  0.064265 
107.27 0.863910   42.477622  0.037227 
107.27 0.871220   61.099063  0.053712 
107.27 0.878630   60.962276  0.053677 
107.27 0.885890   12.721325  0.011384 
107.27 0.893210   24.461635  0.021725 
107.27 0.909667   31.911927  0.029283 
107.27 0.926122   75.028049  0.071166 
107.27 0.942572   84.289055  0.082869 
107.27 0.959010   79.669548  0.081218 
107.27 0.975452   49.758617  0.052600 
107.27 0.991881   26.115630  0.028615 
107.27 1.008310   18.772659  0.021278 
107.27 1.024730   21.075111  0.024858 
107.27 1.041150   39.459628  0.048324 
107.27 1.057560   58.423578  0.074450 
107.27 1.073950   63.465366  0.083926 
107.27 1.090360   59.818462  0.081550 
107.27 1.106760   48.212572  0.067959 
107.27 1.123170   24.838575  0.035920 
107.27 1.139560    4.156558  0.006197 
107.27 1.155950    3.172750  0.004869 
107.27 1.172340    1.203258  0.001904 
107.27 1.188720    2.622796  0.004268 
107.27 1.205110    6.505120  0.010864 
107.27 1.221500   20.792282  0.035740 
107.27 1.237880   25.743439  0.045452 
107.27 1.254270   34.906017  0.063699 
107.27 1.270650   39.298675  0.073731 
107.27 1.287020   39.905867  0.077229 
107.27 1.303400   33.844049  0.067749 
107.27 1.319790   20.281340  0.042066 
107.27 1.336170    9.934308  0.021347 
107.27 1.352560    3.732144  0.008317 
107.27 1.368940    1.660651  0.003818 
107.27 1.385320    1.225385  0.002891 
107.27 1.401700    1.033160  0.002497 
107.27 1.418100    1.019713  0.002531 
107.27 1.434490    3.031476  0.007746 
107.27 1.450890    6.001191  0.015743 
107.27 1.467290    8.726373  0.023496 
107.27 1.483690   10.095425  0.027865 
107.27 1.500090   14.299963  0.040439 
107.27 1.516510   15.490170  0.045177 
107.27 1.532930   17.439676  0.051898 
107.27 1.549350   20.140699  0.061583 
107.27 1.565780   23.296603  0.073221 
107.27 1.582210   24.363229  0.078638 
107.27 1.598650   25.069799  0.083743 
107.27 1.615120   24.359494  0.083177 
107.27 1.631540   16.429271  0.058009 
107.27 1.647990    7.791690  0.028451 
107.27 1.664460    1.641338  0.006150 
107.27 1.680930    1.289259  0.004980 
107.27 1.697390    1.146510  0.004600 
107.27 1.713870    0.397671  0.001642 
107.27 1.730340    0.163655  0.000696 
107.27 1.746820    0.673125  0.003007 
107.27 1.763300    0.897930  0.004106 
107.27 1.779780    0.472511  0.002230 
107.27 1.796260    0.327057  0.001594 
107.27 1.812740    1.162446  0.005828 
107.27 1.829220    2.690457  0.014151 
107.27 1.845700    2.534615  0.013600 
107.27 1.862180    3.124534  0.017345 
107.27 1.878660    5.828160  0.033419 
107.27 1.895140    7.049314  0.041553 
107.27 1.911610    5.929284  0.036133 
107.27 1.928080    3.988359  0.024978 
107.27 1.944550    3.865468  0.024977 
107.27 1.961010    3.199493  0.021566 
107.27 1.977480    2.997234  0.020589 
107.27 1.993940    2.813508  0.019931 
107.27 2.010410    2.422702  0.017666 
107.27 2.026890    1.885119  0.014117 
107.27 2.043360    1.328536  0.010321 
107.27 2.059840    0.866088  0.006934 
107.27 2.076330    0.520227  0.004335 
107.27 2.092830    0.172740  0.001482 
107.27 2.109340    0.061946  0.000547 
107.27 2.125870    0.224077  0.002027 
107.27 2.142400    0.182268  0.001686 
107.27 2.158950    0.160379  0.001519 
107.27 2.175520    0.087737  0.000875 
107.27 2.192110    0.064756  0.000650 
107.27 2.208700    0.044247  0.000454 
107.27 2.225320    0.081995  0.000867 
107.27 2.241950    0.055380  0.000604 
107.27 2.258580    0.074365  0.000834 
107.27 2.275220    0.073915  0.000854 
107.27 2.291850    0.097206  0.001152 
107.27 2.308490    0.090277  0.001100 
107.27 2.325120    0.056150  0.000700 
107.27 2.341740    0.061002  0.000786 
107.27 2.358360    0.002321  0.000031 
107.27 2.374960    0.074040  0.001002 
107.27 2.391560    0.037534  0.000523 
107.27 2.408150    0.024774  0.000352 
107.27 2.424740    0.056859  0.000831 
107.27 2.441320    0.018136  0.000270 
107.27 2.457890    0.112136  0.001725 
107.27 2.474470    0.168249  0.002643 
107.27 2.491040    0.232187  0.003759 
107.27 2.507610    0.392850  0.006457 
107.27 2.524180    0.429991  0.007254 
107.27 2.540750    0.348684  0.006018 
107.27 2.557330    0.313784  0.005598 
107.27 2.573900    0.120438  0.002195 
107.27 2.590480    0.113224  0.002110 
107.27 2.607070    0.120837  0.002292 
107.27 2.623670    0.287455  0.005553 
107.27 2.640260    1.017875  0.020408 
107.27 2.656860    2.015605  0.040853 
107.27 2.673470    2.631955  0.055051 
107.27 2.690100    2.880753  0.061502 
107.27 2.706720    3.069427  0.066935 
107.27 2.723340    3.205959  0.071536 
107.27 2.740000    3.163182  0.072185 
107.27 2.756630    3.168205  0.073948 
107.27 2.773270    2.988337  0.071796 
107.27 2.789930    2.717869  0.066403 
107.27 2.806590    2.205451  0.054933 
107.27 2.823260    1.684913  0.042907 
107.27 2.839920    1.273134  0.033140 
107.27 2.856590    1.041110  0.027742 
107.27 2.873260    0.871322  0.023781 
107.27 2.889940    0.796559  0.022272 
107.27 2.906610    0.684429  0.019450 
107.27 2.923300    0.529868  0.015383 
107.27 2.939980    0.551910  0.016397 
107.27 2.956660    0.415060  0.012592 
107.27 2.973340    0.366430  0.011332 
107.27 2.990010    0.281102  0.008878 
107.27 3.006770    0.266172  0.008604 
107.27 3.023430    0.365751  0.012056 
107.27 3.040120    0.356373  0.012053 
107.27 3.056840    0.360902  0.012488 
107.27 3.073530    0.346224  0.012165 
107.27 3.090230    0.363172  0.013018 
107.27 3.106930    0.343576  0.012571 
107.27 3.123610    0.263837  0.009885 
107.27 3.140320    0.242096  0.009221 
107.27 3.157020    0.205937  0.008011 
107.27 3.173720    0.113345  0.004498 
107.27 3.190410    0.057077  0.002308 
107.27 3.207110    0.026691  0.001101 
107.27 3.223800    0.030160  0.001269 
107.27 3.240500   -0.003791 -0.000163 
107.27 3.257180    0.035135  0.001539 
107.27 3.273870   -0.003680 -0.000164 
107.27 3.290560    0.032680  0.001490 
107.27 3.307240    0.026379  0.001239 
107.27 3.323910    0.035664  0.001696 
107.27 3.340590    0.018992  0.000918 
107.27 3.357260    0.002953  0.000145 
107.27 3.373920    0.012756  0.000640 
107.27 3.390580    0.031223  0.001596 
107.27 3.407250    0.018810  0.000984 
107.27 3.423910    0.025297  0.001345 
107.27 3.440570    0.003327  0.000180 
107.27 3.457230    0.020937  0.001150 
107.27 3.473890    0.000653  0.000037 
107.27 3.490540    0.021545  0.001229 
107.27 3.507200   -0.003346 -0.000194 
107.27 3.523840    0.000325  0.000019 
107.27 3.540500    0.020265  0.001220 
107.27 3.557160   -0.001331 -0.000082 
107.27 3.573810    0.011804  0.000738 
107.27 3.590470    0.003126  0.000199 
107.27 3.607110    0.001667  0.000108 
107.27 3.623770    0.012826  0.000843 
107.27 3.640430    0.004691  0.000314 
107.27 3.657090   -0.000000 -0.000000 
107.27 3.673740    0.050160  0.003490 
107.27 3.690400    0.020786  0.001477 
107.27 3.707060    0.017330  0.001259 
107.27 3.723730    0.023133  0.001705 
107.27 3.740390    0.020632  0.001547 
107.27 3.757050    0.021427  0.001652 
107.27 3.773710    0.035509  0.002750 
107.27 3.790380    0.017773  0.001398 
107.27 3.807040   -0.012422 -0.000993 
107.27 3.823710    0.031612  0.002566 
107.27 3.840390    0.017396  0.001433 
107.27 3.857060    0.018258  0.001528 
107.27 3.873700    0.031840  0.002714 
107.27 3.890410    0.024771  0.002147 
107.27 3.907090    0.013148  0.001158 
107.27 3.923780    0.057700  0.005157 
107.27 3.940470    0.033658  0.003057 
107.27 3.957170    0.072673  0.006727 
107.27 3.973870    0.066384  0.006249 
107.27 3.990570    0.081494  0.007802 
107.27 4.007280    0.127421  0.012427 
107.27 4.023980    0.125780  0.012452 
107.27 4.040700    0.161278  0.016201 
107.27 4.057430    0.108493  0.011155 
107.27 4.074140    0.203143  0.021163 
107.27 4.090880    0.171281  0.018020 
107.27 4.107600    0.228505  0.024394 
107.27 4.124330    0.185781  0.020133 
107.27 4.141070    0.202468  0.022282 
107.27 4.157810    0.131016  0.014668 
107.27 4.174560    0.097328  0.011060 
107.27 4.191300    0.075989  0.008779 
107.27 4.208040    0.048998  0.005764 
107.27 4.224780    0.073255  0.008737 
107.27 4.241530    0.053154  0.006413 
107.27 4.258270    0.082978  0.010178 
107.27 4.275020    0.104671  0.013023 
107.27 4.291770    0.123727  0.015675 
107.27 4.308520    0.060431  0.007924 
107.27 4.325260    0.079217  0.010533 
107.27 4.342010    0.133724  0.018000 
107.27 4.358760    0.116279  0.016114 
107.27 4.375500    0.112041  0.015897 
107.27 4.392240    0.103024  0.014742 
107.27 4.408980    0.088399  0.012907 
107.27 4.425730    0.085981  0.012929 
107.27 4.442480    0.115115  0.017433 
107.27 4.459220    0.155995  0.023883 
107.27 4.475990    0.206303  0.032374 
107.27 4.492740    0.189629  0.030199 
107.27 4.509490    0.291390  0.046779 
107.27 4.526250    0.413258  0.067528 
107.27 4.543010    0.556496  0.092989 
107.27 4.559790    0.605093  0.101922 
107.27 4.576540    1.092216  0.186052 
107.27 4.593320    1.466460  0.254974 
107.27 4.610090    2.023651  0.356876 
107.27 4.626870    2.247760  0.399710 
107.27 4.643640    2.591595  0.465742 
107.27 4.660440    3.049031  0.561575 
107.27 4.677210    3.652757  0.677165 
107.27 4.694010    3.717588  0.694204 
107.27 4.710790    3.826770  0.723043 
107.27 4.727590    3.538132  0.678954 
107.27 4.744400    2.761764  0.535207 
107.27 4.761210    3.458380  0.678606 
107.27 4.778030    4.382090  0.872345 
107.27 4.794860    4.360431  0.881390 
107.27 4.811690    4.927422  1.008482 
107.27 4.828520    4.444403  0.918618 
107.27 4.845360    4.295612  0.897444 
107.27 4.862220    3.853259  0.816755 
107.27 4.879080    4.411246  0.949629 
107.27 4.895940    4.132352  0.899780 
107.27 4.912830    3.645147  0.802837 
107.27 4.929720    4.336155  0.970300 
107.27 4.946610    3.587112  0.812979 
107.27 4.963510    3.317594  0.761408 
107.27 4.980430    3.802940  0.882756 
107.27 4.997340    4.496707  1.058730 
107.27 5.014250    4.350288  1.038545 
107.27 5.031170    3.129262  0.756361 
107.27 5.048110    4.432376  1.081512 
107.27 5.065030    5.201592  1.285504 
107.27 5.081950    4.658137  1.167400 
107.27 5.098890    3.528025  0.896922 
107.27 5.115800    4.129283  1.063302 
107.27 5.132420    4.186545  1.092692 
133.52 0.350540   38.822917  0.032851 
133.52 0.358950   41.475063  0.035316 
133.52 0.366290   48.678668  0.036185 
133.52 0.373220   44.097438  0.033902 
133.52 0.379490   49.215667  0.038002 
133.52 0.387900   43.338836  0.034548 
133.52 0.395180   42.755903  0.031784 
133.52 0.402520   75.075401  0.039131 
133.52 0.409550   77.158139  0.038129 
133.52 0.417310   83.963343  0.040045 
133.52 0.424360   80.350037  0.039364 
133.52 0.431840   76.333131  0.039147 
133.52 0.439190   86.129256  0.039697 
133.52 0.446520   99.359855  0.042124 
133.52 0.453720  104.993994  0.043006 
133.52 0.461630  106.795658  0.043399 
133.52 0.468410  102.666165  0.042629 
133.52 0.476220  104.086713  0.042557 
133.52 0.486290  103.907670  0.045023 
133.52 0.489670  104.419691  0.045377 
133.52 0.497770  110.271558  0.047476 
133.52 0.506280  105.116221  0.046139 
133.52 0.512220  105.001743  0.047007 
133.52 0.519630  100.736625  0.047392 
133.52 0.527660  105.485545  0.047807 
133.52 0.534160  108.646737  0.048525 
133.52 0.541560  103.314598  0.046744 
133.52 0.549540  108.820640  0.048834 
133.52 0.556140  108.353612  0.049567 
133.52 0.563530  107.359742  0.049556 
133.52 0.571310  109.304053  0.050290 
133.52 0.578100  108.290633  0.049878 
133.52 0.585480  108.201924  0.050582 
133.52 0.593120  106.607797  0.050797 
133.52 0.599380   95.453377  0.045751 
133.52 0.607570  106.192197  0.051336 
133.52 0.615050   95.105370  0.047598 
133.52 0.622070   91.009407  0.045663 
133.52 0.629400   99.144104  0.050352 
133.52 0.637040   99.015556  0.051052 
133.52 0.644080   95.867186  0.050353 
133.52 0.651420   92.297482  0.049771 
133.52 0.659100   88.942875  0.049518 
133.52 0.666090   89.653100  0.049263 
133.52 0.673420   90.605697  0.050652 
133.52 0.681020   89.207446  0.050899 
133.52 0.688030   87.210689  0.050671 
133.52 0.695350   87.082925  0.051563 
133.52 0.702880   79.277141  0.047942 
133.52 0.710000   80.143869  0.049015 
133.52 0.717330   72.454600  0.045507 
133.52 0.724840   49.876048  0.031550 
133.52 0.731980   49.287917  0.031733 
133.52 0.739300   67.318223  0.044378 
133.52 0.746760   76.638204  0.051042 
133.52 0.753960   74.588625  0.050325 
133.52 0.761280   72.016446  0.049515 
133.52 0.768740   70.328111  0.049429 
133.52 0.775950   66.212601  0.047029 
133.52 0.783280   61.061107  0.043816 
133.52 0.790720   58.636227  0.042908 
133.52 0.797930   54.408940  0.040449 
133.52 0.805220   57.992391  0.043848 
133.52 0.812620   61.386468  0.046952 
133.52 0.819890   63.558236  0.049908 
133.52 0.827210   65.136440  0.051500 
133.52 0.834630   61.433412  0.049690 
133.52 0.841900   53.807532  0.044132 
133.52 0.849220   55.290754  0.047170 
133.52 0.856630   43.789821  0.038278 
133.52 0.863910   25.152751  0.022044 
133.52 0.871220   37.808514  0.033237 
133.52 0.878630   35.531035  0.031285 
133.52 0.885890    7.392993  0.006616 
133.52 0.893210   13.472327  0.011965 
133.52 0.909667   20.518969  0.018828 
133.52 0.926122   39.404628  0.037376 
133.52 0.942572   47.758625  0.046954 
133.52 0.959010   44.162045  0.045020 
133.52 0.975452   25.165977  0.026603 
133.52 0.991881   14.676143  0.016081 
133.52 1.008310   10.729557  0.012161 
133.52 1.024730   13.191245  0.015559 
133.52 1.041150   23.888800  0.029256 
133.52 1.057560   34.796824  0.044342 
133.52 1.073950   34.878446  0.046123 
133.52 1.090360   34.606793  0.047179 
133.52 1.106760   26.267426  0.037026 
133.52 1.123170   13.819751  0.019985 
133.52 1.139560    2.662098  0.003969 
133.52 1.155950    1.550294  0.002379 
133.52 1.172340    0.715144  0.001131 
133.52 1.188720    1.630617  0.002654 
133.52 1.205110    4.304671  0.007189 
133.52 1.221500   14.333985  0.024639 
133.52 1.237880   16.465559  0.029071 
133.52 1.254270   21.908613  0.039980 
133.52 1.270650   24.193710  0.045392 
133.52 1.287020   24.874023  0.048138 
133.52 1.303400   21.164504  0.042367 
133.52 1.319790   12.880552  0.026716 
133.52 1.336170    6.529503  0.014030 
133.52 1.352560    2.404628  0.005359 
133.52 1.368940    0.965249  0.002219 
133.52 1.385320    1.046683  0.002469 
133.52 1.401700    0.823324  0.001990 
133.52 1.418100    0.810518  0.002012 
133.52 1.434490    2.047671  0.005232 
133.52 1.450890    3.600008  0.009444 
133.52 1.467290    5.287528  0.014237 
133.52 1.483690    6.980844  0.019268 
133.52 1.500090   10.677293  0.030194 
133.52 1.516510   11.066072  0.032274 
133.52 1.532930   13.170447  0.039193 
133.52 1.549350   14.279805  0.043662 
133.52 1.565780   14.850075  0.046674 
133.52 1.582210   15.033874  0.048525 
133.52 1.598650   15.774122  0.052692 
133.52 1.615120   13.807359  0.047146 
133.52 1.631540   10.022533  0.035388 
133.52 1.647990    5.765770  0.021054 
133.52 1.664460    1.302161  0.004879 
133.52 1.680930    0.570587  0.002204 
133.52 1.697390    0.280976  0.001127 
133.52 1.713870    0.239959  0.000991 
133.52 1.730340   -0.014441 -0.000061 
133.52 1.746820    0.338207  0.001511 
133.52 1.763300    0.343343  0.001570 
133.52 1.779780    0.309636  0.001462 
133.52 1.796260    0.155394  0.000757 
133.52 1.812740    0.711085  0.003565 
133.52 1.829220    1.334173  0.007017 
133.52 1.845700    1.402344  0.007525 
133.52 1.862180    2.181949  0.012112 
133.52 1.878660    3.168027  0.018165 
133.52 1.895140    4.021389  0.023704 
133.52 1.911610    3.447482  0.021009 
133.52 1.928080    2.607317  0.016329 
133.52 1.944550    2.553208  0.016498 
133.52 1.961010    1.942452  0.013093 
133.52 1.977480    1.740596  0.011957 
133.52 1.993940    1.905031  0.013496 
133.52 2.010410    1.469878  0.010718 
133.52 2.026890    1.097932  0.008222 
133.52 2.043360    0.740083  0.005750 
133.52 2.059840    0.537088  0.004300 
133.52 2.076330    0.162898  0.001358 
133.52 2.092830    0.071091  0.000610 
133.52 2.109340    0.014348  0.000127 
133.52 2.125870    0.036944  0.000334 
133.52 2.142400    0.225242  0.002084 
133.52 2.158950    0.119036  0.001127 
133.52 2.175520    0.017190  0.000171 
133.52 2.192110    0.100208  0.001006 
133.52 2.208700    0.025839  0.000265 
133.52 2.225320    0.173670  0.001836 
133.52 2.241950    0.003273  0.000036 
133.52 2.258580    0.009305  0.000104 
133.52 2.275220    0.024256  0.000280 
133.52 2.291850    0.098933  0.001173 
133.52 2.308490    0.127140  0.001549 
133.52 2.325120    0.055433  0.000691 
133.52 2.341740    0.080238  0.001034 
133.52 2.358360   -0.014400 -0.000190 
133.52 2.374960    0.078163  0.001058 
133.52 2.391560   -0.032799 -0.000457 
133.52 2.408150   -0.038427 -0.000545 
133.52 2.424740    0.058478  0.000855 
133.52 2.441320   -0.052724 -0.000786 
133.52 2.457890    0.094903  0.001460 
133.52 2.474470    0.125523  0.001971 
133.52 2.491040    0.085930  0.001391 
133.52 2.507610    0.143797  0.002364 
133.52 2.524180    0.115465  0.001948 
133.52 2.540750    0.226057  0.003901 
133.52 2.557330    0.170331  0.003038 
133.52 2.573900    0.055373  0.001009 
133.52 2.590480    0.075507  0.001407 
133.52 2.607070    0.027310  0.000518 
133.52 2.623670    0.178225  0.003443 
133.52 2.640260    0.716909  0.014373 
133.52 2.656860    1.203377  0.024391 
133.52 2.673470    1.602792  0.033525 
133.52 2.690100    1.822130  0.038901 
133.52 2.706720    1.896522  0.041358 
133.52 2.723340    1.918304  0.042804 
133.52 2.740000    2.030829  0.046345 
133.52 2.756630    1.944714  0.045391 
133.52 2.773270    1.907319  0.045824 
133.52 2.789930    1.836118  0.044860 
133.52 2.806590    1.571425  0.039141 
133.52 2.823260    1.280003  0.032596 
133.52 2.839920    0.932569  0.024275 
133.52 2.856590    0.911447  0.024287 
133.52 2.873260    0.723652  0.019751 
133.52 2.889940    0.700206  0.019578 
133.52 2.906610    0.576798  0.016392 
133.52 2.923300    0.433050  0.012572 
133.52 2.939980    0.457676  0.013597 
133.52 2.956660    0.321351  0.009749 
133.52 2.973340    0.380605  0.011771 
133.52 2.990010    0.346791  0.010953 
133.52 3.006770    0.285229  0.009220 
133.52 3.023430    0.288965  0.009525 
133.52 3.040120    0.348023  0.011770 
133.52 3.056840    0.259585  0.008982 
133.52 3.073530    0.302929  0.010644 
133.52 3.090230    0.305225  0.010941 
133.52 3.106930    0.254301  0.009304 
133.52 3.123610    0.203792  0.007636 
133.52 3.140320    0.207865  0.007917 
133.52 3.157020    0.189660  0.007378 
133.52 3.173720    0.111972  0.004443 
133.52 3.190410    0.034340  0.001389 
133.52 3.207110    0.014937  0.000616 
133.52 3.223800   -0.063880 -0.002687 
133.52 3.240500    0.065530  0.002812 
133.52 3.257180    0.040996  0.001795 
133.52 3.273870    0.037186  0.001660 
133.52 3.290560   -0.005150 -0.000235 
133.52 3.307240   -0.008942 -0.000420 
133.52 3.323910    0.028148  0.001339 
133.52 3.340590   -0.044398 -0.002146 
133.52 3.357260    0.014657  0.000721 
133.52 3.373920    0.017112  0.000858 
133.52 3.390580    0.023971  0.001225 
133.52 3.407250    0.037015  0.001936 
133.52 3.423910    0.024782  0.001318 
133.52 3.440570   -0.051197 -0.002766 
133.52 3.457230   -0.008162 -0.000448 
133.52 3.473890    0.027568  0.001543 
133.52 3.490540    0.012298  0.000701 
133.52 3.507200    0.025178  0.001461 
133.52 3.523840   -0.022058 -0.001303 
133.52 3.540500   -0.015223 -0.000917 
133.52 3.557160    0.030828  0.001890 
133.52 3.573810    0.040349  0.002522 
133.52 3.590470    0.001108  0.000070 
133.52 3.607110   -0.005516 -0.000357 
133.52 3.623770   -0.023051 -0.001515 
133.52 3.640430    0.043792  0.002931 
133.52 3.657090   -0.027941 -0.001909 
133.52 3.673740    0.029056  0.002022 
133.52 3.690400    0.037096  0.002635 
133.52 3.707060    0.001709  0.000124 
133.52 3.723730   -0.001714 -0.000126 
133.52 3.740390   -0.003875 -0.000291 
133.52 3.757050   -0.028907 -0.002229 
133.52 3.773710    0.011388  0.000882 
133.52 3.790380    0.009257  0.000728 
133.52 3.807040    0.022716  0.001815 
133.52 3.823710    0.010210  0.000829 
133.52 3.840390   -0.012259 -0.001010 
133.52 3.857060    0.016151  0.001351 
133.52 3.873700    0.115181  0.009817 
133.52 3.890410   -0.006672 -0.000578 
133.52 3.907090    0.042122  0.003710 
133.52 3.923780   -0.008150 -0.000728 
133.52 3.940470   -0.001168 -0.000106 
133.52 3.957170    0.078366  0.007253 
133.52 3.973870    0.084115  0.007918 
133.52 3.990570    0.084852  0.008123 
133.52 4.007280    0.092089  0.008981 
133.52 4.023980    0.054363  0.005382 
133.52 4.040700    0.112412  0.011292 
133.52 4.057430    0.129965  0.013363 
133.52 4.074140    0.146869  0.015301 
133.52 4.090880    0.142908  0.015035 
133.52 4.107600    0.201933  0.021558 
133.52 4.124330    0.133401  0.014456 
133.52 4.141070    0.108329  0.011922 
133.52 4.157810    0.109490  0.012258 
133.52 4.174560    0.090303  0.010261 
133.52 4.191300    0.062679  0.007241 
133.52 4.208040    0.034822  0.004096 
133.52 4.224780    0.050362  0.006006 
133.52 4.241530    0.059182  0.007140 
133.52 4.258270    0.105181  0.012902 
133.52 4.275020    0.071430  0.008887 
133.52 4.291770    0.111254  0.014095 
133.52 4.308520    0.048777  0.006396 
133.52 4.325260    0.084098  0.011182 
133.52 4.342010    0.074502  0.010028 
133.52 4.358760    0.117475  0.016280 
133.52 4.375500    0.048088  0.006823 
133.52 4.392240    0.065779  0.009413 
133.52 4.408980    0.106211  0.015507 
133.52 4.425730    0.125178  0.018823 
133.52 4.442480    0.118478  0.017942 
133.52 4.459220    0.081535  0.012483 
133.52 4.475990    0.204681  0.032120 
133.52 4.492740    0.170547  0.027160 
133.52 4.509490    0.271777  0.043630 
133.52 4.526250    0.376622  0.061541 
133.52 4.543010    0.616625  0.103036 
133.52 4.559790    0.665065  0.112024 
133.52 4.576540    1.202736  0.204879 
133.52 4.593320    1.605699  0.279183 
133.52 4.610090    2.227923  0.392899 
133.52 4.626870    2.487384  0.442321 
133.52 4.643640    2.803210  0.503772 
133.52 4.660440    3.424280  0.630689 
133.52 4.677210    4.051217  0.751034 
133.52 4.694010    4.128129  0.770867 
133.52 4.710790    4.124973  0.779387 
133.52 4.727590    3.789429  0.727178 
133.52 4.744400    2.950411  0.571765 
133.52 4.761210    3.907356  0.766704 
133.52 4.778030    4.973032  0.989983 
133.52 4.794860    4.778205  0.965837 
133.52 4.811690    5.494231  1.124489 
133.52 4.828520    4.844461  1.001305 
133.52 4.845360    4.581135  0.957095 
133.52 4.862220    4.305955  0.912710 
133.52 4.879080    4.879254  1.050379 
133.52 4.895940    4.375053  0.952626 
133.52 4.912830    4.195561  0.924064 
133.52 4.929720    4.653507  1.041314 
133.52 4.946610    3.891513  0.881968 
133.52 4.963510    3.570722  0.819503 
133.52 4.980430    4.233043  0.982593 
133.52 4.997340    5.087529  1.197837 
133.52 5.014250    4.618591  1.102597 
133.52 5.031170    3.341782  0.807729 
133.52 5.048110    5.082309  1.240099 
133.52 5.065030    5.699988  1.408676 
133.52 5.081950    4.858352  1.217576 
133.52 5.098890    3.957073  1.005998 
133.52 5.115800    4.532231  1.167063 
133.52 5.132420    4.653912  1.214675 
